"pid","condition","question_cond","item_order","trial","item_1","item_2","item_type","rt","rating"
"5654","tax_order1","tax","1",1,"KNOB","COLD","unr_item",11.724,39.15
"5654","tax_order1","tax","1",2,"PACKAGE","DELIVERY","the_item",11.635,59.92
"5654","tax_order1","tax","1",3,"CITY","VILLAGE","tax_item",8.684,42.33
"5654","tax_order1","tax","1",4,"TOAD","GAS","unr_item",9.185,2.65
"5654","tax_order1","tax","1",5,"RECEPTIONIST","TELEPHONE","the_item",4.969,68.78
"5654","tax_order1","tax","1",6,"COOKIE","CHOCOLATE","the_item",4.315,89.68
"5654","tax_order1","tax","1",7,"ATHLETE","SALON","unr_item",5.567,0.26
"5654","tax_order1","tax","1",8,"TOAST","BISCUITS","tax_item",3.572,15.48
"5654","tax_order1","tax","1",9,"COW","PIG","tax_item",6.716,39.15
"5654","tax_order1","tax","1",10,"PAN","OVEN","the_item",2.714,73.94
"5654","tax_order1","tax","1",11,"SHEEP","MINT","unr_item",3.214,14.42
"5654","tax_order1","tax","1",12,"TRUCK","TRAILER","the_item",5.436,72.62
"5654","tax_order1","tax","1",13,"ONION","GARLIC","tax_item",5.669,30.03
"5654","tax_order1","tax","1",14,"TEETH","ICE","unr_item",3.053,1.46
"5654","tax_order1","tax","1",15,"SPOON","LADLE","tax_item",4.269,100
"5654","tax_order1","tax","1",16,"BANK","FISH","unr_item",4.609,0
"5654","tax_order1","tax","1",17,"FIREMAN","POLICE","tax_item",4.088,39.81
"5654","tax_order1","tax","1",18,"CUP","BOWL","tax_item",3.557,6.75
"5654","tax_order1","tax","1",19,"CAMEL","DESERT","the_item",2.305,78.04
"5654","tax_order1","tax","1",20,"CHAIR","SOFA","tax_item",3.758,49.87
"5654","tax_order1","tax","1",21,"HAPPY","SMILE","the_item",5.804,80.29
"5654","tax_order1","tax","1",22,"EAR","BENCH","unr_item",5.954,1.32
"5654","tax_order1","tax","1",23,"PENGUIN","ICE","the_item",6.746,85.05
"5654","tax_order1","tax","1",24,"CORK","ENGINE","unr_item",4.196,23.94
"5654","tax_order1","tax","1",25,"COACH","ASPHALT","unr_item",3.055,4.89
"5654","tax_order1","tax","1",26,"LAMP","TRUCK","unr_item",6.514,0.4
"5654","tax_order1","tax","1",27,"SHOE","FOOT","the_item",3.337,99.21
"5654","tax_order1","tax","1",28,"SILVER","BULLET","the_item",5.545,96.96
"5654","tax_order1","tax","1",29,"BALL","BREAD","unr_item",5.768,7.8
"5654","tax_order1","tax","1",30,"FOOT","HOUSE","unr_item",4.333,0
"5654","tax_order1","tax","1",31,"GLASSES","CAKE","unr_item",2.83,8.2
"5654","tax_order1","tax","1",32,"BUTTERFLY","BEE","tax_item",3.675,72.75
"5654","tax_order1","tax","1",33,"CHAIR","UMBRELLA","unr_item",3.103,0
"5654","tax_order1","tax","1",34,"PLANT","CLOUD","unr_item",9.295,4.76
"5654","tax_order1","tax","1",35,"BAGEL","TORTILLA","tax_item",4.253,70.77
"5654","tax_order1","tax","1",36,"PENCIL","ERASER","the_item",6.907,99.47
"5654","tax_order1","tax","1",37,"PATIO","BOWL","unr_item",5.735,3.31
"5654","tax_order1","tax","1",38,"RAPIDS","RIVER","the_item",2.981,94.84
"5654","tax_order1","tax","1",39,"SLED","SNOW","the_item",5.516,99.6
"5654","tax_order1","tax","1",40,"PILOT","HAIR","unr_item",3.336,8.73
"5654","tax_order1","tax","1",41,"CYMBAL","ROD","unr_item",8.87,0
"5654","tax_order1","tax","1",42,"PARK","HAND","unr_item",17.177,4.1
"5654","tax_order1","tax","1",43,"HYDRANT","WAX","unr_item",10.759,7.41
"5654","tax_order1","tax","1",44,"NEST","BIRD","the_item",2.496,87.43
"5654","tax_order1","tax","1",45,"CAR","SEATBELT","the_item",2.305,100
"5654","tax_order1","tax","1",46,"CAR","BICYCLE","tax_item",3.434,59.66
"5654","tax_order1","tax","1",47,"SHORE","STEW","unr_item",3.789,19.31
"5654","tax_order1","tax","1",48,"WAITRESS","RESTAURANT","the_item",3.239,96.3
"5654","tax_order1","tax","1",49,"CLUB","CLIMATE","unr_item",3.91,12.7
"5654","tax_order1","tax","1",50,"LION","STEREO","unr_item",4.369,7.54
"5654","tax_order1","tax","1",51,"WHIP","LAW","unr_item",4.471,73.81
"5654","tax_order1","tax","1",52,"MOVIE","HOUSE","unr_item",2.939,11.77
"5654","tax_order1","tax","1",53,"NECK","CABINET","unr_item",3.425,6.48
"5654","tax_order1","tax","1",54,"COMB","TOOTHBRUSH","tax_item",2.744,61.24
"5654","tax_order1","tax","1",55,"AIRPLANE","SUBMARINE","tax_item",5.333,4.89
"5654","tax_order1","tax","1",56,"BROCHURE","LAKE","unr_item",12.091,1.32
"5654","tax_order1","tax","1",57,"PELICAN","DANCE","unr_item",3.813,78.97
"5654","tax_order1","tax","1",58,"POND","HOOD","unr_item",11.755,8.47
"5654","tax_order1","tax","1",59,"CONCRETE","CEREAL","unr_item",3.553,5.82
"5654","tax_order1","tax","1",60,"CROW","SHEET","unr_item",2.818,4.63
"5654","tax_order1","tax","1",61,"TEAM","CIRCLE","unr_item",3.267,73.68
"5654","tax_order1","tax","1",62,"MIRROR","BOTTLE","unr_item",2.337,2.25
"5654","tax_order1","tax","1",63,"CHILD","TROUT","unr_item",6.118,5.69
"5654","tax_order1","tax","1",64,"SWAN","BEACH","unr_item",7.598,41.14
"5654","tax_order1","tax","1",65,"DOG","BONE","the_item",2.826,82.54
"5654","tax_order1","tax","1",66,"FOOTBALL","BASEBALL","tax_item",9.813,43.52
"5654","tax_order1","tax","1",67,"COW","BUFFALO","tax_item",6.023,65.08
"5654","tax_order1","tax","1",68,"AIRPLANE","PLUG","unr_item",3.774,16.27
"5654","tax_order1","tax","1",69,"BERRY","CLOCK","unr_item",15.083,19.84
"5654","tax_order1","tax","1",70,"SHIP","CAPTAIN","the_item",2.677,83.99
"5654","tax_order1","tax","1",71,"TIGER","WALL","unr_item",2.405,8.86
"5654","tax_order1","tax","1",72,"SHED","PEPPER","unr_item",3.474,5.82
"5654","tax_order1","tax","1",73,"WEB","SPIDER","the_item",1.849,90.08
"5654","tax_order1","tax","1",74,"SNOW","SHOP","unr_item",4.706,41.01
"5654","tax_order1","tax","1",75,"SCREEN","BASKETBALL","unr_item",4.053,87.04
"5654","tax_order1","tax","1",76,"ROBBERY","TREASON","tax_item",4.679,30.56
"5654","tax_order1","tax","1",77,"KNIFE","CHISEL","tax_item",2.324,93.92
"5654","tax_order1","tax","1",78,"SOCK","CARPET","unr_item",3.728,26.19
"5654","tax_order1","tax","1",79,"GLOVES","APPLE","unr_item",2.982,13.62
"5654","tax_order1","tax","1",80,"SHIP","CANOE","tax_item",3.588,46.43
"5654","tax_order1","tax","1",81,"COMPUTER","MOUSE","the_item",2.051,73.02
"5654","tax_order1","tax","1",82,"CRIB","BED","tax_item",5.976,44.44
"5654","tax_order1","tax","1",83,"CAN","BOTTLE","tax_item",3.134,43.92
"5654","tax_order1","tax","1",84,"GRASS","LAWNMOWER","the_item",3.206,87.04
"5654","tax_order1","tax","1",85,"CROUTONS","BAGEL","tax_item",5.399,100
"5654","tax_order1","tax","1",86,"SHAMPOO","BLEACH","tax_item",4.78,0
"5654","tax_order1","tax","1",87,"WATER","CHEESE","unr_item",4.641,0.13
"5654","tax_order1","tax","1",88,"KIDNEY","SURGEON","the_item",7.593,31.61
"5654","tax_order1","tax","1",89,"COW","MILK","the_item",2.607,99.34
"5654","tax_order1","tax","1",90,"ASTRONAUT","ROCKET","the_item",3.191,100
"5654","tax_order1","tax","1",91,"WINGS","FLY","the_item",4.203,99.6
"5654","tax_order1","tax","1",92,"SHRIMP","COTTON","unr_item",2.736,0
"5654","tax_order1","tax","1",93,"WORK","NOVEL","unr_item",12.471,38.49
"5654","tax_order1","tax","1",94,"NOSE","TENT","unr_item",3.456,2.51
"5654","tax_order1","tax","1",95,"SPOT","SHARK","unr_item",3.408,0
"5654","tax_order1","tax","1",96,"PANDA","RACOON","tax_item",2.85,1.19
"5654","tax_order1","tax","1",97,"PASTOR","RABBI","tax_item",3.054,96.96
"5654","tax_order1","tax","1",98,"BEER","PARTY","the_item",2.523,98.68
"5654","tax_order1","tax","1",99,"FUR","PAGE","unr_item",2.524,4.76
"5654","tax_order1","tax","1",100,"POCKET","PANTS","the_item",2.223,86.64
"5654","tax_order1","tax","1",101,"HARP","SAXOPHONE","tax_item",7.999,29.37
"5654","tax_order1","tax","1",102,"HOTEL","CHISEL","unr_item",2.431,1.98
"5654","tax_order1","tax","1",103,"WINDOW","LEAF","unr_item",3.408,0.13
"5654","tax_order1","tax","1",104,"LAUNDRY","CARAVAN","unr_item",3.151,5.56
"5654","tax_order1","tax","1",105,"BRICK","VOLCANO","unr_item",3.774,0
"5654","tax_order1","tax","1",106,"ROOF","KEY","unr_item",3.844,0
"5654","tax_order1","tax","1",107,"RAIN","BONE","unr_item",7.683,7.8
"5654","tax_order1","tax","1",108,"MONKEY","BANANA","the_item",2.257,100
"5654","tax_order1","tax","1",109,"CAKE","DONUT","tax_item",2.1,89.95
"5654","tax_order1","tax","1",110,"INTERNET","BOMB","unr_item",3.199,0
"5654","tax_order1","tax","1",111,"ALCOHOL","CIGARETTES","tax_item",3.646,59.66
"5654","tax_order1","tax","1",112,"PIN","NEEDLE","tax_item",2.087,82.41
"5654","tax_order1","tax","1",113,"FEATHER","GLASS","unr_item",1.867,25.79
"5654","tax_order1","tax","1",114,"COCONUT","ORANGE","tax_item",7.829,33.47
"5654","tax_order1","tax","1",115,"LIBRARY","STAIRS","unr_item",3.979,83.86
"5654","tax_order1","tax","1",116,"COURT","FIELD","tax_item",2.951,92.59
"5654","tax_order1","tax","1",117,"KING","CROWN","the_item",2.659,97.35
"5654","tax_order1","tax","1",118,"CHALK","SLIDE","unr_item",2.559,1.46
"5656","tax_order1","tax","1",1,"FOOTBALL","BASEBALL","tax_item",12.585,69.31
"5656","tax_order1","tax","1",2,"SAXOPHONE","HARP","tax_item",5.633,69.58
"5656","tax_order1","tax","1",3,"SNAIL","PELICAN","unr_item",6.862,29.23
"5656","tax_order1","tax","1",4,"SMILE","HAPPY","the_item",5.89,90.48
"5656","tax_order1","tax","1",5,"SPIDER","WEB","the_item",5.466,67.72
"5656","tax_order1","tax","1",6,"SPOON","LADLE","tax_item",6.826,75.66
"5656","tax_order1","tax","1",7,"TREASON","ROBBERY","tax_item",5.858,60.05
"5656","tax_order1","tax","1",8,"CROUTONS","BAGEL","tax_item",8.071,46.03
"5656","tax_order1","tax","1",9,"ORANGE","COCONUT","tax_item",6.47,60.05
"5656","tax_order1","tax","1",10,"RECEPTIONIST","TELEPHONE","the_item",5.114,65.48
"5656","tax_order1","tax","1",11,"CLOUD","PLANT","unr_item",10.218,43.25
"5656","tax_order1","tax","1",12,"WORK","CEMETARY","unr_item",8.923,32.14
"5656","tax_order1","tax","1",13,"FOOT","SHOE","the_item",6.518,65.87
"5656","tax_order1","tax","1",14,"RIVER","RAPIDS","the_item",4.963,68.65
"5656","tax_order1","tax","1",15,"MIRROR","HAMSTER","unr_item",10.043,1.59
"5656","tax_order1","tax","1",16,"WHALE","NECK","unr_item",5.565,1.98
"5656","tax_order1","tax","1",17,"DRIVEWAY","GLOVES","unr_item",9.151,0.79
"5656","tax_order1","tax","1",18,"NEEDLE","PIN","tax_item",15.328,79.23
"5656","tax_order1","tax","1",19,"MONKEY","BANANA","the_item",8.286,61.77
"5656","tax_order1","tax","1",20,"LAKE","DRUM","unr_item",8.773,20.11
"5656","tax_order1","tax","1",21,"TUB","SHORE","unr_item",4.416,30.56
"5656","tax_order1","tax","1",22,"DOG","BONE","the_item",5.244,38.36
"5656","tax_order1","tax","1",23,"BEE","BUTTERFLY","tax_item",4.316,59.79
"5656","tax_order1","tax","1",24,"LAMP","TRUCK","unr_item",3.3,0
"5656","tax_order1","tax","1",25,"SCHOOL","TOAD","unr_item",4.688,0.4
"5656","tax_order1","tax","1",26,"BUSINESS","CONCRETE","unr_item",5.646,10.32
"5656","tax_order1","tax","1",27,"CIRCLE","SAUCE","unr_item",5.623,12.96
"5656","tax_order1","tax","1",28,"KNOB","SALESMAN","unr_item",5.443,41.27
"5656","tax_order1","tax","1",29,"BALL","BREAD","unr_item",14.285,0.13
"5656","tax_order1","tax","1",30,"SHAMPOO","BLEACH","tax_item",18.122,16.14
"5656","tax_order1","tax","1",31,"FOOT","CODE","unr_item",3.723,0
"5656","tax_order1","tax","1",32,"BISCUIT","COTTON","unr_item",7.348,9.26
"5656","tax_order1","tax","1",33,"SURGEON","KIDNEY","the_item",4.72,60.19
"5656","tax_order1","tax","1",34,"TOOTHBRUSH","COMB","tax_item",6.143,21.03
"5656","tax_order1","tax","1",35,"CAKE","DONUT","tax_item",4.858,70.77
"5656","tax_order1","tax","1",36,"ICE","TEETH","unr_item",5.112,12.43
"5656","tax_order1","tax","1",37,"BEER","PARTY","the_item",3.434,80.16
"5656","tax_order1","tax","1",38,"SNOW","SLED","the_item",3.387,81.22
"5656","tax_order1","tax","1",39,"BAGEL","TORTILLA","tax_item",4.895,63.1
"5656","tax_order1","tax","1",40,"CHAIR","SOFA","tax_item",2.997,72.75
"5656","tax_order1","tax","1",41,"FLY","WINGS","the_item",4.662,74.34
"5656","tax_order1","tax","1",42,"TROUT","BILL","unr_item",4.942,63.49
"5656","tax_order1","tax","1",43,"SHIP","CAPTAIN","the_item",4.672,79.63
"5656","tax_order1","tax","1",44,"CIGARETTES","ALCOHOL","tax_item",4.199,76.72
"5656","tax_order1","tax","1",45,"CRIB","BED","tax_item",4.199,91.8
"5656","tax_order1","tax","1",46,"WALL","CARD","unr_item",7.411,13.1
"5656","tax_order1","tax","1",47,"PASTOR","RABBI","tax_item",8.424,59.92
"5656","tax_order1","tax","1",48,"SALON","ATHLETE","unr_item",7.053,19.31
"5656","tax_order1","tax","1",49,"ROOF","KEY","unr_item",4.535,41.4
"5656","tax_order1","tax","1",50,"EAR","FREEZER","unr_item",6.75,0.4
"5656","tax_order1","tax","1",51,"CANOE","SHIP","tax_item",3.147,91.93
"5656","tax_order1","tax","1",52,"CLIMATE","CACTUS","unr_item",2.8,63.62
"5656","tax_order1","tax","1",53,"MILK","COW","the_item",2.93,81.48
"5656","tax_order1","tax","1",54,"DESERT","CAMEL","the_item",2.917,83.07
"5656","tax_order1","tax","1",55,"WATER","BUG","unr_item",6.908,29.89
"5656","tax_order1","tax","1",56,"CHAIR","UMBRELLA","unr_item",2.793,10.71
"5656","tax_order1","tax","1",57,"SEATBELT","CAR","the_item",2.386,70.63
"5656","tax_order1","tax","1",58,"METAL","SPOT","unr_item",4.252,10.45
"5656","tax_order1","tax","1",59,"STAIRS","LIBRARY","unr_item",4.908,56.22
"5656","tax_order1","tax","1",60,"GUITAR","LEAF","unr_item",2.491,9.79
"5656","tax_order1","tax","1",61,"BOWL","PATIO","unr_item",5.653,2.51
"5656","tax_order1","tax","1",62,"WHIP","FENDER","unr_item",12.295,21.3
"5656","tax_order1","tax","1",63,"CITY","VILLAGE","tax_item",6.028,60.58
"5656","tax_order1","tax","1",64,"FUR","PAGE","unr_item",3.691,0
"5656","tax_order1","tax","1",65,"LAUNDRY","CRAB","unr_item",3.575,0
"5656","tax_order1","tax","1",66,"CUP","BOWL","tax_item",2.71,70.11
"5656","tax_order1","tax","1",67,"NEST","BIRD","the_item",2.879,61.51
"5656","tax_order1","tax","1",68,"SOCIETY","CYMBAL","unr_item",5.549,60.85
"5656","tax_order1","tax","1",69,"MINT","SHEEP","unr_item",7.14,0
"5656","tax_order1","tax","1",70,"OUTLET","CARPET","unr_item",4.961,12.57
"5656","tax_order1","tax","1",71,"KNIFE","CHISEL","tax_item",2.271,79.89
"5656","tax_order1","tax","1",72,"CAKE","CUP","unr_item",3.605,30.95
"5656","tax_order1","tax","1",73,"AIRPLANE","HAMMER","unr_item",2.623,19.58
"5656","tax_order1","tax","1",74,"PENGUIN","ICE","the_item",2.388,73.15
"5656","tax_order1","tax","1",75,"BERRY","CLOCK","unr_item",2.303,0.13
"5656","tax_order1","tax","1",76,"PILOT","HAIR","unr_item",3.033,19.58
"5656","tax_order1","tax","1",77,"BICYCLE","CAR","tax_item",2.873,59.92
"5656","tax_order1","tax","1",78,"PARCEL","HOTEL","unr_item",3.388,9.52
"5656","tax_order1","tax","1",79,"HAND","PARK","unr_item",3.588,19.71
"5656","tax_order1","tax","1",80,"WRIST","HYDRANT","unr_item",3.392,3.57
"5656","tax_order1","tax","1",81,"LION","TREE","unr_item",3.333,2.65
"5656","tax_order1","tax","1",82,"SWAN","CALCIUM","unr_item",2.728,1.19
"5656","tax_order1","tax","1",83,"COW","BUFFALO","tax_item",6.343,24.87
"5656","tax_order1","tax","1",84,"ASPHALT","PLIERS","unr_item",5.52,15.74
"5656","tax_order1","tax","1",85,"CAN","BOTTLE","tax_item",3.387,61.11
"5656","tax_order1","tax","1",86,"COURT","FIELD","tax_item",2.153,74.74
"5656","tax_order1","tax","1",87,"SKY","CHALK","unr_item",2.222,17.99
"5656","tax_order1","tax","1",88,"BOOT","SCREEN","unr_item",2.394,0.79
"5656","tax_order1","tax","1",89,"SILVER","BULLET","the_item",3.927,59.79
"5656","tax_order1","tax","1",90,"RACOON","PANDA","tax_item",4.507,25.79
"5656","tax_order1","tax","1",91,"CROWN","KING","the_item",2.826,77.51
"5656","tax_order1","tax","1",92,"INTERNET","BOMB","unr_item",2.558,10.58
"5656","tax_order1","tax","1",93,"GRASS","LAWNMOWER","the_item",2.458,71.96
"5656","tax_order1","tax","1",94,"RESTAURANT","WAITRESS","the_item",4.048,72.49
"5656","tax_order1","tax","1",95,"PEPPER","SHED","unr_item",3.049,1.19
"5656","tax_order1","tax","1",96,"CHOCOLATE","COOKIE","the_item",2.005,69.84
"5656","tax_order1","tax","1",97,"HOUSE","PENGUIN","unr_item",2.339,0
"5656","tax_order1","tax","1",98,"SUBMARINE","AIRPLANE","tax_item",2.588,63.62
"5656","tax_order1","tax","1",99,"FISH","BEER","unr_item",3.558,9.79
"5656","tax_order1","tax","1",100,"CROW","DOCTOR","unr_item",3.229,11.11
"5656","tax_order1","tax","1",101,"HEAD","VOLCANO","unr_item",4.619,25
"5656","tax_order1","tax","1",102,"POND","QUEEN","unr_item",2.883,30.42
"5656","tax_order1","tax","1",103,"PACKAGE","DELIVERY","the_item",2.222,80.69
"5656","tax_order1","tax","1",104,"ERASER","PENCIL","the_item",2.459,70.5
"5656","tax_order1","tax","1",105,"ASTRONAUT","ROCKET","the_item",2.962,70.24
"5656","tax_order1","tax","1",106,"PAMPHLET","ENGINE","unr_item",2.895,12.43
"5656","tax_order1","tax","1",107,"GLASS","FEATHER","unr_item",5.518,0
"5656","tax_order1","tax","1",108,"FIREMAN","POLICE","tax_item",3.4,73.41
"5656","tax_order1","tax","1",109,"TENT","SHOVEL","unr_item",3.398,10.58
"5656","tax_order1","tax","1",110,"RAIN","BRACKET","unr_item",2.572,1.19
"5656","tax_order1","tax","1",111,"ONION","GARLIC","tax_item",2.41,70.5
"5656","tax_order1","tax","1",112,"BISCUITS","TOAST","tax_item",2.81,59.79
"5656","tax_order1","tax","1",113,"PAN","OVEN","the_item",3.491,59.13
"5656","tax_order1","tax","1",114,"SNOW","WOUND","unr_item",2.66,12.83
"5656","tax_order1","tax","1",115,"COMPUTER","MOUSE","the_item",2.452,78.7
"5656","tax_order1","tax","1",116,"TRUCK","TRAILER","the_item",4.775,50
"5656","tax_order1","tax","1",117,"COW","PIG","tax_item",2.02,70.5
"5656","tax_order1","tax","1",118,"POCKET","PANTS","the_item",2.898,59.66
"5658","tax_order1","tax","1",1,"APPLE","DRIVEWAY","unr_item",9.711,0.4
"5658","tax_order1","tax","1",2,"COW","BUFFALO","tax_item",6.485,79.89
"5658","tax_order1","tax","1",3,"EAR","FREEZER","unr_item",3.664,0
"5658","tax_order1","tax","1",4,"UMBRELLA","CHAIR","unr_item",5.447,50.26
"5658","tax_order1","tax","1",5,"SKY","CHALK","unr_item",11.994,8.99
"5658","tax_order1","tax","1",6,"PLUG","AIRPLANE","unr_item",4.704,0
"5658","tax_order1","tax","1",7,"SNAIL","PELICAN","unr_item",6.804,59.66
"5658","tax_order1","tax","1",8,"BELL","BERRY","unr_item",10.724,19.58
"5658","tax_order1","tax","1",9,"BED","CRIB","tax_item",9.478,89.95
"5658","tax_order1","tax","1",10,"COW","MILK","the_item",5.329,29.37
"5658","tax_order1","tax","1",11,"QUEEN","HOOD","unr_item",19.989,0.13
"5658","tax_order1","tax","1",12,"SPOON","LADLE","tax_item",3.154,89.81
"5658","tax_order1","tax","1",13,"COMB","TOOTHBRUSH","tax_item",7.842,70.63
"5658","tax_order1","tax","1",14,"WOUND","SNOW","unr_item",8.426,0
"5658","tax_order1","tax","1",15,"BONE","DOG","the_item",4.877,20.9
"5658","tax_order1","tax","1",16,"VILLAGE","CITY","tax_item",8.888,70.5
"5658","tax_order1","tax","1",17,"BANK","BEER","unr_item",3.488,0
"5658","tax_order1","tax","1",18,"BOMB","INTERNET","unr_item",5.954,0
"5658","tax_order1","tax","1",19,"STEREO","LION","unr_item",12.323,5.29
"5658","tax_order1","tax","1",20,"SOCK","OUTLET","unr_item",7.069,0
"5658","tax_order1","tax","1",21,"SHIP","CANOE","tax_item",7.439,70.24
"5658","tax_order1","tax","1",22,"AIRPLANE","SUBMARINE","tax_item",5.705,74.47
"5658","tax_order1","tax","1",23,"CAKE","DONUT","tax_item",3.454,69.58
"5658","tax_order1","tax","1",24,"PARTY","BEER","the_item",3.758,20.77
"5658","tax_order1","tax","1",25,"WINDOW","LEAF","unr_item",7.021,4.63
"5658","tax_order1","tax","1",26,"TRUCK","LAMP","unr_item",6.784,0
"5658","tax_order1","tax","1",27,"SHORE","TUB","unr_item",4.237,19.44
"5658","tax_order1","tax","1",28,"CHILD","BILL","unr_item",4.487,19.84
"5658","tax_order1","tax","1",29,"METAL","SPOT","unr_item",6.36,0.26
"5658","tax_order1","tax","1",30,"ENGINE","PAMPHLET","unr_item",5.343,0
"5658","tax_order1","tax","1",31,"PENGUIN","ICE","the_item",5.864,13.62
"5658","tax_order1","tax","1",32,"WHALE","CABINET","unr_item",3.564,0
"5658","tax_order1","tax","1",33,"ATHLETE","COUCH","unr_item",5.083,0
"5658","tax_order1","tax","1",34,"SHAMPOO","BLEACH","tax_item",4.811,9.92
"5658","tax_order1","tax","1",35,"RABBI","PASTOR","tax_item",5.96,96.43
"5658","tax_order1","tax","1",36,"ASPHALT","PLIERS","unr_item",21.585,0
"5658","tax_order1","tax","1",37,"SALESMAN","KNOB","unr_item",4.705,0
"5658","tax_order1","tax","1",38,"KNIFE","CHISEL","tax_item",3.456,94.31
"5658","tax_order1","tax","1",39,"GLASSES","CUP","unr_item",4.284,95.63
"5658","tax_order1","tax","1",40,"TREASON","ROBBERY","tax_item",11.545,29.63
"5658","tax_order1","tax","1",41,"PEPPER","TOILET","unr_item",4.083,0
"5658","tax_order1","tax","1",42,"FENDER","WHIP","unr_item",5.211,0
"5658","tax_order1","tax","1",43,"BOTTLE","MIRROR","unr_item",7.328,39.42
"5658","tax_order1","tax","1",44,"TRAILER","TRUCK","the_item",8.776,80.69
"5658","tax_order1","tax","1",45,"SEED","KEY","unr_item",6.804,0.53
"5658","tax_order1","tax","1",46,"SURGEON","KIDNEY","the_item",3.308,9.92
"5658","tax_order1","tax","1",47,"FEATHER","GLASS","unr_item",9.155,0
"5658","tax_order1","tax","1",48,"TOAD","GAS","unr_item",3.002,0
"5658","tax_order1","tax","1",49,"BALLOON","LIBRARY","unr_item",2.986,1.06
"5658","tax_order1","tax","1",50,"CAMEL","DESERT","the_item",3.782,20.77
"5658","tax_order1","tax","1",51,"WALL","TIGER","unr_item",2.998,0.13
"5658","tax_order1","tax","1",52,"WAITRESS","RESTAURANT","the_item",7.315,19.84
"5658","tax_order1","tax","1",53,"SOFA","CHAIR","tax_item",3.739,79.63
"5658","tax_order1","tax","1",54,"DELIVERY","PACKAGE","the_item",4.23,79.89
"5658","tax_order1","tax","1",55,"SPIDER","WEB","the_item",3.354,39.68
"5658","tax_order1","tax","1",56,"SOCIETY","CYMBAL","unr_item",5.945,0.13
"5658","tax_order1","tax","1",57,"BONE","RAIN","unr_item",3.471,1.85
"5658","tax_order1","tax","1",58,"CAR","SEATBELT","the_item",3.35,19.58
"5658","tax_order1","tax","1",59,"SHIP","CAPTAIN","the_item",4.52,20.63
"5658","tax_order1","tax","1",60,"CROW","DOCTOR","unr_item",2.758,0
"5658","tax_order1","tax","1",61,"ASTRONAUT","ROCKET","the_item",3.319,19.97
"5658","tax_order1","tax","1",62,"SAXOPHONE","HARP","tax_item",3.336,79.63
"5658","tax_order1","tax","1",63,"HOTEL","PARCEL","unr_item",3.782,0.4
"5658","tax_order1","tax","1",64,"MOUSE","COMPUTER","the_item",3.082,20.11
"5658","tax_order1","tax","1",65,"TEAM","CIRCLE","unr_item",5.549,20.24
"5658","tax_order1","tax","1",66,"COCONUT","ORANGE","tax_item",4.658,59.13
"5658","tax_order1","tax","1",67,"FOOT","SHOE","the_item",7.066,50.13
"5658","tax_order1","tax","1",68,"BIRD","NEST","the_item",5.096,20.5
"5658","tax_order1","tax","1",69,"WATER","BUG","unr_item",4.049,19.71
"5658","tax_order1","tax","1",70,"BASKETBALL","SCREEN","unr_item",3.069,0.53
"5658","tax_order1","tax","1",71,"PANDA","RACOON","tax_item",7.516,60.58
"5658","tax_order1","tax","1",72,"BOWL","CUP","tax_item",3.232,60.05
"5658","tax_order1","tax","1",73,"FERRY","BOWL","unr_item",3.083,0.4
"5658","tax_order1","tax","1",74,"BASEBALL","FOOTBALL","tax_item",9.371,74.34
"5658","tax_order1","tax","1",75,"PANTS","POCKET","the_item",7.396,25.4
"5658","tax_order1","tax","1",76,"WAX","WRIST","unr_item",3.637,0
"5658","tax_order1","tax","1",77,"OVEN","PAN","the_item",3.013,19.58
"5658","tax_order1","tax","1",78,"FLY","WINGS","the_item",4.438,20.24
"5658","tax_order1","tax","1",79,"BEE","BUTTERFLY","tax_item",2.95,79.63
"5658","tax_order1","tax","1",80,"CLIMATE","CLUB","unr_item",4.517,0
"5658","tax_order1","tax","1",81,"TENT","NOSE","unr_item",2.981,0
"5658","tax_order1","tax","1",82,"BAGEL","CROUTONS","tax_item",3.977,60.05
"5658","tax_order1","tax","1",83,"HOUSE","PENGUIN","unr_item",4.29,0
"5658","tax_order1","tax","1",84,"BROCHURE","LAKE","unr_item",3.457,0.13
"5658","tax_order1","tax","1",85,"COTTON","BISCUIT","unr_item",3.442,0
"5658","tax_order1","tax","1",86,"CEMETARY","NOVEL","unr_item",2.629,0
"5658","tax_order1","tax","1",87,"FOOT","CODE","unr_item",3.712,0
"5658","tax_order1","tax","1",88,"CAN","BOTTLE","tax_item",3.536,89.55
"5658","tax_order1","tax","1",89,"GARLIC","ONION","tax_item",2.695,69.18
"5658","tax_order1","tax","1",90,"LAUNDRY","CARAVAN","unr_item",3.881,0
"5658","tax_order1","tax","1",91,"PENCIL","ERASER","the_item",4.148,29.5
"5658","tax_order1","tax","1",92,"TORTILLA","BAGEL","tax_item",3.466,60.05
"5658","tax_order1","tax","1",93,"COW","PIG","tax_item",4.743,78.7
"5658","tax_order1","tax","1",94,"KEYBOARD","BREAD","unr_item",3.928,0
"5658","tax_order1","tax","1",95,"CROWN","KING","the_item",4.891,20.5
"5658","tax_order1","tax","1",96,"FUR","PAGE","unr_item",4.72,0
"5658","tax_order1","tax","1",97,"SNOW","SLED","the_item",2.98,20.77
"5658","tax_order1","tax","1",98,"TELEPHONE","RECEPTIONIST","the_item",10.255,20.63
"5658","tax_order1","tax","1",99,"CAR","BICYCLE","tax_item",5.533,64.95
"5658","tax_order1","tax","1",100,"HAIR","PILOT","unr_item",3.302,0
"5658","tax_order1","tax","1",101,"RAPIDS","RIVER","the_item",5.925,18.65
"5658","tax_order1","tax","1",102,"CIGARETTES","ALCOHOL","tax_item",5.639,83.2
"5658","tax_order1","tax","1",103,"CLOUD","NECKLACE","unr_item",3.201,0
"5658","tax_order1","tax","1",104,"LAWNMOWER","GRASS","the_item",3.018,19.71
"5658","tax_order1","tax","1",105,"BANANA","MONKEY","the_item",2.918,20.9
"5658","tax_order1","tax","1",106,"BISCUITS","TOAST","tax_item",5.213,85.85
"5658","tax_order1","tax","1",107,"CALCIUM","BEACH","unr_item",3.304,0.13
"5658","tax_order1","tax","1",108,"CHOCOLATE","COOKIE","the_item",5.805,29.76
"5658","tax_order1","tax","1",109,"HAPPY","SMILE","the_item",3.121,99.74
"5658","tax_order1","tax","1",110,"POLICE","FIREMAN","tax_item",4.203,85.58
"5658","tax_order1","tax","1",111,"NEEDLE","PIN","tax_item",4.678,94.44
"5658","tax_order1","tax","1",112,"TEETH","DOG","unr_item",2.743,19.97
"5658","tax_order1","tax","1",113,"SHEEP","FLUTE","unr_item",2.833,0
"5658","tax_order1","tax","1",114,"HEAD","BRICK","unr_item",3.216,0.53
"5658","tax_order1","tax","1",115,"SILVER","BULLET","the_item",3.004,5.16
"5658","tax_order1","tax","1",116,"STRING","PARK","unr_item",2.575,0.53
"5658","tax_order1","tax","1",117,"FIELD","COURT","tax_item",4.149,75.53
"5658","tax_order1","tax","1",118,"BUSINESS","CEREAL","unr_item",2.88,0
"5660","tax_order1","tax","1",1,"BRICK","VOLCANO","unr_item",7.676,0
"5660","tax_order1","tax","1",2,"WINGS","FLY","the_item",3.419,79.89
"5660","tax_order1","tax","1",3,"SAXOPHONE","HARP","tax_item",4.024,69.44
"5660","tax_order1","tax","1",4,"SHOE","FOOT","the_item",4.753,70.11
"5660","tax_order1","tax","1",5,"GRASS","LAWNMOWER","the_item",2.998,79.89
"5660","tax_order1","tax","1",6,"WRIST","HYDRANT","unr_item",2.832,0
"5660","tax_order1","tax","1",7,"BROCHURE","LAKE","unr_item",4.601,10.05
"5660","tax_order1","tax","1",8,"HOUSE","PENGUIN","unr_item",4.224,0
"5660","tax_order1","tax","1",9,"TENT","SHOVEL","unr_item",3.151,4.1
"5660","tax_order1","tax","1",10,"RACOON","PANDA","tax_item",6.046,55.82
"5660","tax_order1","tax","1",11,"CLUB","CLIMATE","unr_item",5.551,0
"5660","tax_order1","tax","1",12,"PASTOR","RABBI","tax_item",3.809,64.42
"5660","tax_order1","tax","1",13,"SHARK","SPOT","unr_item",5.769,0
"5660","tax_order1","tax","1",14,"ASTRONAUT","ROCKET","the_item",3.336,76.46
"5660","tax_order1","tax","1",15,"CYMBAL","ROD","unr_item",2.26,44.71
"5660","tax_order1","tax","1",16,"SOCK","OUTLET","unr_item",2.879,0.53
"5660","tax_order1","tax","1",17,"KING","CROWN","the_item",3.028,83.47
"5660","tax_order1","tax","1",18,"FEATHER","GLASS","unr_item",4.033,32.14
"5660","tax_order1","tax","1",19,"CHAIR","SOFA","tax_item",2.27,92.46
"5660","tax_order1","tax","1",20,"ALCOHOL","CIGARETTES","tax_item",3.165,90.08
"5660","tax_order1","tax","1",21,"ICE","TEETH","unr_item",3.048,1.72
"5660","tax_order1","tax","1",22,"MONKEY","BANANA","the_item",2.358,67.06
"5660","tax_order1","tax","1",23,"WINDOW","LEAF","unr_item",3.199,0.13
"5660","tax_order1","tax","1",24,"SHRIMP","BISCUIT","unr_item",3.526,0.26
"5660","tax_order1","tax","1",25,"CIRCLE","SAUCE","unr_item",3.408,0
"5660","tax_order1","tax","1",26,"BEE","BUTTERFLY","tax_item",3.71,70.37
"5660","tax_order1","tax","1",27,"COMB","TOOTHBRUSH","tax_item",4.047,49.34
"5660","tax_order1","tax","1",28,"NOVEL","WORK","unr_item",3.775,49.87
"5660","tax_order1","tax","1",29,"POLICE","FIREMAN","tax_item",4.114,99.34
"5660","tax_order1","tax","1",30,"WHALE","NECK","unr_item",4.707,13.1
"5660","tax_order1","tax","1",31,"PELICAN","SNAIL","unr_item",5.329,7.67
"5660","tax_order1","tax","1",32,"FERRY","BOWL","unr_item",2.715,8.73
"5660","tax_order1","tax","1",33,"HAIR","SODA","unr_item",2.945,0
"5660","tax_order1","tax","1",34,"CODE","FOOT","unr_item",2.612,0
"5660","tax_order1","tax","1",35,"TRUCK","TRAILER","the_item",3.289,93.39
"5660","tax_order1","tax","1",36,"BANK","BEER","unr_item",2.643,0.13
"5660","tax_order1","tax","1",37,"ROOF","SEED","unr_item",2.49,0
"5660","tax_order1","tax","1",38,"QUEEN","POND","unr_item",2.679,3.17
"5660","tax_order1","tax","1",39,"DONUT","CAKE","tax_item",2.762,80.16
"5660","tax_order1","tax","1",40,"ICE","PENGUIN","the_item",3.892,38.89
"5660","tax_order1","tax","1",41,"SUBMARINE","AIRPLANE","tax_item",4.4,69.44
"5660","tax_order1","tax","1",42,"LAUNDRY","CARAVAN","unr_item",3.897,0
"5660","tax_order1","tax","1",43,"HAND","PARK","unr_item",2.979,0.79
"5660","tax_order1","tax","1",44,"SMILE","HAPPY","the_item",4.845,99.21
"5660","tax_order1","tax","1",45,"TELEPHONE","RECEPTIONIST","the_item",3.352,10.58
"5660","tax_order1","tax","1",46,"ENGINE","PAMPHLET","unr_item",3.284,0.26
"5660","tax_order1","tax","1",47,"APPLE","DRIVEWAY","unr_item",2.542,0.4
"5660","tax_order1","tax","1",48,"HAMMER","PLUG","unr_item",2.607,8.6
"5660","tax_order1","tax","1",49,"RIVER","RAPIDS","the_item",2.767,82.14
"5660","tax_order1","tax","1",50,"BAGEL","CROUTONS","tax_item",3.522,59.92
"5660","tax_order1","tax","1",51,"BONE","DOG","the_item",3.845,49.87
"5660","tax_order1","tax","1",52,"PHONE","LAMP","unr_item",3.684,0.4
"5660","tax_order1","tax","1",53,"DOCTOR","CROW","unr_item",2.523,0.13
"5660","tax_order1","tax","1",54,"PACKAGE","DELIVERY","the_item",2.474,94.97
"5660","tax_order1","tax","1",55,"SHORE","TUB","unr_item",3.339,4.5
"5660","tax_order1","tax","1",56,"BALL","KEYBOARD","unr_item",2.358,5.29
"5660","tax_order1","tax","1",57,"SHED","TOILET","unr_item",3.487,1.06
"5660","tax_order1","tax","1",58,"NEST","BIRD","the_item",4.199,60.05
"5660","tax_order1","tax","1",59,"PANTS","POCKET","the_item",5.334,94.44
"5660","tax_order1","tax","1",60,"CAKE","GLASSES","unr_item",4.23,0.13
"5660","tax_order1","tax","1",61,"BASEBALL","FOOTBALL","tax_item",2.171,86.38
"5660","tax_order1","tax","1",62,"AUNT","INTERNET","unr_item",2.831,0
"5660","tax_order1","tax","1",63,"ERASER","PENCIL","the_item",5.173,20.24
"5660","tax_order1","tax","1",64,"WAVE","FUR","unr_item",4.351,0.13
"5660","tax_order1","tax","1",65,"SHEEP","MINT","unr_item",8.791,0.13
"5660","tax_order1","tax","1",66,"BOWL","CUP","tax_item",11.857,95.37
"5660","tax_order1","tax","1",67,"CANOE","SHIP","tax_item",3.677,100
"5660","tax_order1","tax","1",68,"SALON","ATHLETE","unr_item",3.573,0
"5660","tax_order1","tax","1",69,"DESERT","CAMEL","the_item",4.975,89.81
"5660","tax_order1","tax","1",70,"BICYCLE","CAR","tax_item",2.962,89.29
"5660","tax_order1","tax","1",71,"PIN","NEEDLE","tax_item",3.086,100
"5660","tax_order1","tax","1",72,"PARTY","BEER","the_item",3.169,69.18
"5660","tax_order1","tax","1",73,"KNIFE","CHISEL","tax_item",2.191,99.6
"5660","tax_order1","tax","1",74,"COACH","ASPHALT","unr_item",2.743,0.4
"5660","tax_order1","tax","1",75,"HOTEL","PARCEL","unr_item",2.866,8.73
"5660","tax_order1","tax","1",76,"MILK","COW","the_item",2.979,87.43
"5660","tax_order1","tax","1",77,"BUG","WATER","unr_item",3.066,0
"5660","tax_order1","tax","1",78,"PLANT","NECKLACE","unr_item",2.556,0
"5660","tax_order1","tax","1",79,"SCREEN","BASKETBALL","unr_item",4.051,0
"5660","tax_order1","tax","1",80,"COLD","KNOB","unr_item",2.913,0
"5660","tax_order1","tax","1",81,"SNOW","SLED","the_item",2.238,81.35
"5660","tax_order1","tax","1",82,"CAPTAIN","SHIP","the_item",2.339,69.97
"5660","tax_order1","tax","1",83,"ORANGE","COCONUT","tax_item",2.575,10.58
"5660","tax_order1","tax","1",84,"BANANA","UMBRELLA","unr_item",2.598,0.13
"5660","tax_order1","tax","1",85,"RAIN","BONE","unr_item",5.281,0.26
"5660","tax_order1","tax","1",86,"BOTTLE","HAMSTER","unr_item",3.883,0
"5660","tax_order1","tax","1",87,"TREE","STEREO","unr_item",3.474,0
"5660","tax_order1","tax","1",88,"EAR","FREEZER","unr_item",3.152,0
"5660","tax_order1","tax","1",89,"CHOCOLATE","COOKIE","the_item",3.002,74.74
"5660","tax_order1","tax","1",90,"SKY","CHALK","unr_item",2.551,0.26
"5660","tax_order1","tax","1",91,"COMPUTER","MOUSE","the_item",4.709,69.58
"5660","tax_order1","tax","1",92,"SCHOOL","TOAD","unr_item",4.536,0
"5660","tax_order1","tax","1",93,"CLOCK","BELL","unr_item",3.271,39.42
"5660","tax_order1","tax","1",94,"VILLAGE","CITY","tax_item",3.013,59.92
"5660","tax_order1","tax","1",95,"PIG","COW","tax_item",2.811,70.37
"5660","tax_order1","tax","1",96,"BEACH","SWAN","unr_item",5.489,30.03
"5660","tax_order1","tax","1",97,"SNOW","WOUND","unr_item",2.589,0.13
"5660","tax_order1","tax","1",98,"COW","BUFFALO","tax_item",2.623,80.42
"5660","tax_order1","tax","1",99,"COURT","FIELD","tax_item",2.646,29.5
"5660","tax_order1","tax","1",100,"STAIRS","LIBRARY","unr_item",3.726,19.58
"5660","tax_order1","tax","1",101,"LAW","FENDER","unr_item",3.456,0
"5660","tax_order1","tax","1",102,"SILVER","BULLET","the_item",4.164,39.81
"5660","tax_order1","tax","1",103,"CRIB","BED","tax_item",5.81,89.68
"5660","tax_order1","tax","1",104,"TIGER","CARD","unr_item",2.998,0
"5660","tax_order1","tax","1",105,"SURGEON","KIDNEY","the_item",3.522,19.97
"5660","tax_order1","tax","1",106,"BISCUITS","TOAST","tax_item",3.474,85.32
"5660","tax_order1","tax","1",107,"PAN","OVEN","the_item",4.82,25.53
"5660","tax_order1","tax","1",108,"TORTILLA","BAGEL","tax_item",3.554,59.79
"5660","tax_order1","tax","1",109,"CAR","SEATBELT","the_item",5.295,58.47
"5660","tax_order1","tax","1",110,"SPIDER","WEB","the_item",10.757,70.11
"5660","tax_order1","tax","1",111,"CHILD","BILL","unr_item",4.894,0.13
"5660","tax_order1","tax","1",112,"SHAMPOO","BLEACH","tax_item",3.588,69.84
"5660","tax_order1","tax","1",113,"ONION","GARLIC","tax_item",3.893,94.44
"5660","tax_order1","tax","1",114,"TREASON","ROBBERY","tax_item",3.96,60.32
"5660","tax_order1","tax","1",115,"BUSINESS","CEREAL","unr_item",2.623,0.13
"5660","tax_order1","tax","1",116,"CAN","BOTTLE","tax_item",3.017,67.72
"5660","tax_order1","tax","1",117,"RESTAURANT","WAITRESS","the_item",2.071,56.08
"5660","tax_order1","tax","1",118,"LADLE","SPOON","tax_item",3.475,99.34
"5662","tax_order1","tax","1",1,"RAIN","BRACKET","unr_item",12.191,9.13
"5662","tax_order1","tax","1",2,"SPOON","LADLE","tax_item",7.142,80.42
"5662","tax_order1","tax","1",3,"COOKIE","CHOCOLATE","the_item",14.188,69.18
"5662","tax_order1","tax","1",4,"BOWL","PATIO","unr_item",6.344,0
"5662","tax_order1","tax","1",5,"WORK","NOVEL","unr_item",7.448,59.13
"5662","tax_order1","tax","1",6,"HAPPY","SMILE","the_item",3.594,98.94
"5662","tax_order1","tax","1",7,"AUNT","INTERNET","unr_item",3.931,0
"5662","tax_order1","tax","1",8,"CIRCLE","SAUCE","unr_item",8.196,20.37
"5662","tax_order1","tax","1",9,"NOSE","SHOVEL","unr_item",4.636,0
"5662","tax_order1","tax","1",10,"SKY","CHALK","unr_item",4.811,0.13
"5662","tax_order1","tax","1",11,"SHOE","FOOT","the_item",4.369,99.6
"5662","tax_order1","tax","1",12,"RESTAURANT","WAITRESS","the_item",6.933,79.76
"5662","tax_order1","tax","1",13,"PASTOR","RABBI","tax_item",15.96,49.87
"5662","tax_order1","tax","1",14,"PACKAGE","DELIVERY","the_item",7.425,100
"5662","tax_order1","tax","1",15,"CAKE","DONUT","tax_item",4.297,80.29
"5662","tax_order1","tax","1",16,"OVEN","PAN","the_item",5.186,90.74
"5662","tax_order1","tax","1",17,"APPLE","GLOVES","unr_item",4.877,29.1
"5662","tax_order1","tax","1",18,"CODE","HOUSE","unr_item",6.109,69.44
"5662","tax_order1","tax","1",19,"TREASON","ROBBERY","tax_item",5.533,70.5
"5662","tax_order1","tax","1",20,"BIRD","NEST","the_item",4.929,100
"5662","tax_order1","tax","1",21,"DOG","BONE","the_item",11.211,89.68
"5662","tax_order1","tax","1",22,"WEB","SPIDER","the_item",4.837,100
"5662","tax_order1","tax","1",23,"DESERT","CAMEL","the_item",4.776,89.02
"5662","tax_order1","tax","1",24,"SHAMPOO","BLEACH","tax_item",14.124,40.34
"5662","tax_order1","tax","1",25,"TOILET","SHED","unr_item",3.662,19.44
"5662","tax_order1","tax","1",26,"GLASSES","CUP","unr_item",15.056,29.89
"5662","tax_order1","tax","1",27,"SEATBELT","CAR","the_item",6.377,81.75
"5662","tax_order1","tax","1",28,"TRUCK","LAMP","unr_item",4.096,19.58
"5662","tax_order1","tax","1",29,"STEREO","LION","unr_item",3.012,0
"5662","tax_order1","tax","1",30,"PENCIL","ERASER","the_item",3.017,91.01
"5662","tax_order1","tax","1",31,"BISCUIT","COTTON","unr_item",5.81,1.06
"5662","tax_order1","tax","1",32,"GRASS","LAWNMOWER","the_item",3.323,91.01
"5662","tax_order1","tax","1",33,"CALCIUM","BEACH","unr_item",6.859,7.41
"5662","tax_order1","tax","1",34,"BAGEL","CROUTONS","tax_item",4.098,80.69
"5662","tax_order1","tax","1",35,"COCONUT","ORANGE","tax_item",7.421,81.75
"5662","tax_order1","tax","1",36,"BILL","TROUT","unr_item",4.518,3.7
"5662","tax_order1","tax","1",37,"RAPIDS","RIVER","the_item",3.708,79.5
"5662","tax_order1","tax","1",38,"SURGEON","KIDNEY","the_item",3.866,85.98
"5662","tax_order1","tax","1",39,"COACH","ASPHALT","unr_item",2.943,10.58
"5662","tax_order1","tax","1",40,"FREEZER","BENCH","unr_item",4.764,0.13
"5662","tax_order1","tax","1",41,"WATER","CHEESE","unr_item",8.602,66.53
"5662","tax_order1","tax","1",42,"FOOTBALL","BASEBALL","tax_item",5.547,58.86
"5662","tax_order1","tax","1",43,"DOCTOR","CROW","unr_item",3.152,11.38
"5662","tax_order1","tax","1",44,"SHARK","METAL","unr_item",4.537,31.61
"5662","tax_order1","tax","1",45,"AIRPLANE","SUBMARINE","tax_item",6.155,49.87
"5662","tax_order1","tax","1",46,"SODA","HAIR","unr_item",10.676,16.67
"5662","tax_order1","tax","1",47,"GARLIC","ONION","tax_item",2.833,81.61
"5662","tax_order1","tax","1",48,"SLED","SNOW","the_item",4.455,91.67
"5662","tax_order1","tax","1",49,"LAW","FENDER","unr_item",6.157,15.08
"5662","tax_order1","tax","1",50,"COW","BUFFALO","tax_item",2.957,73.94
"5662","tax_order1","tax","1",51,"CAPTAIN","SHIP","the_item",2.475,95.9
"5662","tax_order1","tax","1",52,"KEYBOARD","BALL","unr_item",4.705,0.66
"5662","tax_order1","tax","1",53,"FIREMAN","POLICE","tax_item",4.22,81.08
"5662","tax_order1","tax","1",54,"CRAB","CARAVAN","unr_item",6.029,10.45
"5662","tax_order1","tax","1",55,"FIELD","COURT","tax_item",4.744,69.71
"5662","tax_order1","tax","1",56,"ROCKET","ASTRONAUT","the_item",4.19,92.59
"5662","tax_order1","tax","1",57,"HAND","STRING","unr_item",2.49,2.65
"5662","tax_order1","tax","1",58,"COW","PIG","tax_item",3.12,83.07
"5662","tax_order1","tax","1",59,"DANCE","SNAIL","unr_item",5.185,0
"5662","tax_order1","tax","1",60,"RACOON","PANDA","tax_item",2.776,50.93
"5662","tax_order1","tax","1",61,"ROOF","KEY","unr_item",10.922,26.72
"5662","tax_order1","tax","1",62,"QUEEN","HOOD","unr_item",4.488,9.52
"5662","tax_order1","tax","1",63,"CACTUS","CLIMATE","unr_item",5.061,52.51
"5662","tax_order1","tax","1",64,"BULLET","SILVER","the_item",9.709,70.5
"5662","tax_order1","tax","1",65,"SHIP","CANOE","tax_item",3.757,69.84
"5662","tax_order1","tax","1",66,"COUCH","ATHLETE","unr_item",2.995,10.71
"5662","tax_order1","tax","1",67,"POCKET","PANTS","the_item",4.517,79.76
"5662","tax_order1","tax","1",68,"CARD","TIGER","unr_item",4.499,16.01
"5662","tax_order1","tax","1",69,"WOUND","SNOW","unr_item",3.029,18.39
"5662","tax_order1","tax","1",70,"WAX","HYDRANT","unr_item",3.574,0.26
"5662","tax_order1","tax","1",71,"STAIRS","LIBRARY","unr_item",3.289,38.89
"5662","tax_order1","tax","1",72,"FLY","WINGS","the_item",3.168,84.52
"5662","tax_order1","tax","1",73,"TOAST","BISCUITS","tax_item",4.844,89.42
"5662","tax_order1","tax","1",74,"ALCOHOL","CIGARETTES","tax_item",5.767,61.51
"5662","tax_order1","tax","1",75,"CROWN","KING","the_item",6.766,93.92
"5662","tax_order1","tax","1",76,"BUTTERFLY","BEE","tax_item",2.727,89.95
"5662","tax_order1","tax","1",77,"BRICK","VOLCANO","unr_item",2.49,20.11
"5662","tax_order1","tax","1",78,"NEEDLE","PIN","tax_item",3.977,99.47
"5662","tax_order1","tax","1",79,"MINT","SHEEP","unr_item",5.007,20.24
"5662","tax_order1","tax","1",80,"TEETH","ICE","unr_item",2.695,26.06
"5662","tax_order1","tax","1",81,"HOUSE","MOVIE","unr_item",5.317,28.17
"5662","tax_order1","tax","1",82,"CITY","VILLAGE","tax_item",7.434,51.06
"5662","tax_order1","tax","1",83,"BELL","BERRY","unr_item",5.251,9.52
"5662","tax_order1","tax","1",84,"GLASS","FEATHER","unr_item",12.292,21.43
"5662","tax_order1","tax","1",85,"BROCHURE","DRUM","unr_item",5.26,2.78
"5662","tax_order1","tax","1",86,"PENGUIN","ICE","the_item",4.01,87.96
"5662","tax_order1","tax","1",87,"PAMPHLET","ENGINE","unr_item",3.865,28.31
"5662","tax_order1","tax","1",88,"RECEPTIONIST","TELEPHONE","the_item",2.98,86.64
"5662","tax_order1","tax","1",89,"KNIFE","CHISEL","tax_item",5.373,70.11
"5662","tax_order1","tax","1",90,"MONKEY","BANANA","the_item",2.599,95.24
"5662","tax_order1","tax","1",91,"BOWL","CUP","tax_item",4.416,85.45
"5662","tax_order1","tax","1",92,"CARPET","OUTLET","unr_item",6.296,63.36
"5662","tax_order1","tax","1",93,"BED","CRIB","tax_item",3.302,86.9
"5662","tax_order1","tax","1",94,"LEAF","WINDOW","unr_item",2.994,15.87
"5662","tax_order1","tax","1",95,"CEREAL","BUSINESS","unr_item",2.541,11.38
"5662","tax_order1","tax","1",96,"STEW","TUB","unr_item",5.006,1.32
"5662","tax_order1","tax","1",97,"GAS","TOAD","unr_item",3.267,5.16
"5662","tax_order1","tax","1",98,"PARTY","BEER","the_item",2.896,89.55
"5662","tax_order1","tax","1",99,"TRAILER","TRUCK","the_item",4.96,89.29
"5662","tax_order1","tax","1",100,"CYMBAL","ROD","unr_item",3.755,13.23
"5662","tax_order1","tax","1",101,"BOTTLE","CAN","tax_item",3.067,82.14
"5662","tax_order1","tax","1",102,"CHAIR","SOFA","tax_item",8.243,79.89
"5662","tax_order1","tax","1",103,"MILK","COW","the_item",4.369,89.55
"5662","tax_order1","tax","1",104,"FUR","WAVE","unr_item",2.982,16.14
"5662","tax_order1","tax","1",105,"CLOUD","PLANT","unr_item",8.078,48.15
"5662","tax_order1","tax","1",106,"UMBRELLA","CHAIR","unr_item",6.901,19.97
"5662","tax_order1","tax","1",107,"SCREEN","BASKETBALL","unr_item",7.734,31.08
"5662","tax_order1","tax","1",108,"BANK","FISH","unr_item",6.597,35.85
"5662","tax_order1","tax","1",109,"KNOB","SALESMAN","unr_item",3.773,55.69
"5662","tax_order1","tax","1",110,"BAGEL","TORTILLA","tax_item",2.461,86.51
"5662","tax_order1","tax","1",111,"HAMSTER","MIRROR","unr_item",2.638,3.04
"5662","tax_order1","tax","1",112,"SAXOPHONE","HARP","tax_item",3.338,76.59
"5662","tax_order1","tax","1",113,"COMPUTER","MOUSE","the_item",8.264,80.82
"5662","tax_order1","tax","1",114,"COMB","TOOTHBRUSH","tax_item",7.526,60.98
"5662","tax_order1","tax","1",115,"PARCEL","CHISEL","unr_item",5.201,25.66
"5662","tax_order1","tax","1",116,"CAR","BICYCLE","tax_item",3.116,50.26
"5662","tax_order1","tax","1",117,"PLUG","AIRPLANE","unr_item",3.724,19.31
"5662","tax_order1","tax","1",118,"CABINET","WHALE","unr_item",6.075,18.78
"5655","tax_order2","tax","2",1,"MILK","LEMONADE","tax_item",11.217,10.05
"5655","tax_order2","tax","2",2,"GARLIC","VAMPIRE","the_item",6.965,69.44
"5655","tax_order2","tax","2",3,"DOCTOR","SHEET","unr_item",6.094,100
"5655","tax_order2","tax","2",4,"SOCIETY","CYMBAL","unr_item",5.799,18.92
"5655","tax_order2","tax","2",5,"METAL","SPOT","unr_item",3.944,1.72
"5655","tax_order2","tax","2",6,"COMPUTER","TABLET","tax_item",2.852,99.74
"5655","tax_order2","tax","2",7,"GAS","TOAD","unr_item",4.269,0
"5655","tax_order2","tax","2",8,"FREEZER","BENCH","unr_item",3.256,0.93
"5655","tax_order2","tax","2",9,"SKY","SLIDE","unr_item",4.054,0
"5655","tax_order2","tax","2",10,"CAKE","CANDLE","the_item",4.892,59.92
"5655","tax_order2","tax","2",11,"CALCIUM","SWAN","unr_item",2.814,0.4
"5655","tax_order2","tax","2",12,"CLOCK","BERRY","unr_item",2.56,0
"5655","tax_order2","tax","2",13,"CHISEL","PARCEL","unr_item",2.851,28.17
"5655","tax_order2","tax","2",14,"GRASS","COW","the_item",3.337,79.89
"5655","tax_order2","tax","2",15,"ROCKET","MISSILE","tax_item",5.678,89.95
"5655","tax_order2","tax","2",16,"AUNT","BOMB","unr_item",2.676,0
"5655","tax_order2","tax","2",17,"SNOW","RAIN","tax_item",2.576,100
"5655","tax_order2","tax","2",18,"BRACKET","RAIN","unr_item",2.715,0
"5655","tax_order2","tax","2",19,"SUBMARINE","OCEAN","the_item",3.07,50.79
"5655","tax_order2","tax","2",20,"BABY","BOTTLE","the_item",3.882,60.05
"5655","tax_order2","tax","2",21,"FIELD","GRASS","the_item",2.597,79.63
"5655","tax_order2","tax","2",22,"SHOWER","SHAMPOO","the_item",1.788,80.42
"5655","tax_order2","tax","2",23,"BABY","CRIB","the_item",1.934,78.84
"5655","tax_order2","tax","2",24,"TEA","CUP","the_item",2.478,60.05
"5655","tax_order2","tax","2",25,"PANDA","BAMBOO","the_item",2.561,70.9
"5655","tax_order2","tax","2",26,"GOOSE","PENGUIN","tax_item",2.965,19.58
"5655","tax_order2","tax","2",27,"PHONE","LAMP","unr_item",7.221,0
"5655","tax_order2","tax","2",28,"CARPET","SOCK","unr_item",2.711,0
"5655","tax_order2","tax","2",29,"HAMSTER","BOTTLE","unr_item",3.627,0
"5655","tax_order2","tax","2",30,"HAPPY","SAD","tax_item",2.88,0
"5655","tax_order2","tax","2",31,"GUITAR","LEAF","unr_item",2.102,0.93
"5655","tax_order2","tax","2",32,"BIRD","BAT","tax_item",3.064,39.55
"5655","tax_order2","tax","2",33,"BEACH","COCONUT","the_item",2.123,60.45
"5655","tax_order2","tax","2",34,"MICROWAVE","OVEN","tax_item",2.523,70.63
"5655","tax_order2","tax","2",35,"BEANS","TORTILLA","the_item",4.234,9.66
"5655","tax_order2","tax","2",36,"BANK","ROBBERY","the_item",3.474,69.84
"5655","tax_order2","tax","2",37,"CITY","AIRPORT","the_item",3.541,49.21
"5655","tax_order2","tax","2",38,"TIGER","WALL","unr_item",2.206,0
"5655","tax_order2","tax","2",39,"COTTON","BISCUIT","unr_item",2.019,1.06
"5655","tax_order2","tax","2",40,"AIRPLANE","PLUG","unr_item",1.884,0
"5655","tax_order2","tax","2",41,"PLIERS","COACH","unr_item",2.091,0
"5655","tax_order2","tax","2",42,"CLOUD","PLANT","unr_item",3.31,4.89
"5655","tax_order2","tax","2",43,"SCISSORS","LAWNMOWER","tax_item",6.642,60.19
"5655","tax_order2","tax","2",44,"WAVE","FUR","unr_item",3.182,0.66
"5655","tax_order2","tax","2",45,"SALESMAN","COLD","unr_item",7.097,0
"5655","tax_order2","tax","2",46,"STEWARDESS","WAITRESS","tax_item",2.679,100
"5655","tax_order2","tax","2",47,"HOSTESS","RECEPTIONIST","tax_item",2.757,80.82
"5655","tax_order2","tax","2",48,"GRAVY","BISCUITS","the_item",2.647,79.23
"5655","tax_order2","tax","2",49,"BEE","HONEY","the_item",2.478,69.71
"5655","tax_order2","tax","2",50,"HAT","CROWN","tax_item",1.864,100
"5655","tax_order2","tax","2",51,"SAXOPHONE","JAZZ","the_item",1.73,99.87
"5655","tax_order2","tax","2",52,"RABBI","TEMPLE","the_item",2.615,100
"5655","tax_order2","tax","2",53,"SILVER","GOLD","tax_item",3.322,60.05
"5655","tax_order2","tax","2",54,"BASKETBALL","SCREEN","unr_item",2.338,100
"5655","tax_order2","tax","2",55,"STRING","HAND","unr_item",2.834,100
"5655","tax_order2","tax","2",56,"SHOP","WOUND","unr_item",3.663,28.84
"5655","tax_order2","tax","2",57,"CONCRETE","BUSINESS","unr_item",3.962,80.03
"5655","tax_order2","tax","2",58,"CAR","BIKE","tax_item",2.597,80.29
"5655","tax_order2","tax","2",59,"WRIST","HYDRANT","unr_item",2.087,5.03
"5655","tax_order2","tax","2",60,"SALAD","CROUTONS","the_item",1.851,95.24
"5655","tax_order2","tax","2",61,"NECK","WHALE","unr_item",3.208,1.19
"5655","tax_order2","tax","2",62,"HEAD","VOLCANO","unr_item",1.982,0
"5655","tax_order2","tax","2",63,"PILOT","CAPTAIN","tax_item",1.918,100
"5655","tax_order2","tax","2",64,"TOILET","SHED","unr_item",3.252,0
"5655","tax_order2","tax","2",65,"KEYBOARD","BALL","unr_item",5.352,0
"5655","tax_order2","tax","2",66,"BUS","TRUCK","tax_item",1.769,100
"5655","tax_order2","tax","2",67,"BOWL","PATIO","unr_item",3.256,0
"5655","tax_order2","tax","2",68,"SALON","ATHLETE","unr_item",3.19,0.66
"5655","tax_order2","tax","2",69,"CUP","CAKE","unr_item",5.338,1.19
"5655","tax_order2","tax","2",70,"COOKIE","BISCUIT","tax_item",1.566,70.5
"5655","tax_order2","tax","2",71,"FOOTBALL","QUARTERBACK","the_item",1.867,100
"5655","tax_order2","tax","2",72,"RIVER","LAKE","tax_item",1.731,100
"5655","tax_order2","tax","2",73,"WATER","CHEESE","unr_item",2.822,0
"5655","tax_order2","tax","2",74,"CHAIR","BANANA","unr_item",2.447,0
"5655","tax_order2","tax","2",75,"DRUM","BROCHURE","unr_item",2.583,0
"5655","tax_order2","tax","2",76,"BEER","JUICE","tax_item",4.132,69.58
"5655","tax_order2","tax","2",77,"MONKEY","BEAR","tax_item",2.899,50.53
"5655","tax_order2","tax","2",78,"BALLOON","LIBRARY","unr_item",3.176,0.4
"5655","tax_order2","tax","2",79,"PAMPHLET","ENGINE","unr_item",2.646,1.06
"5655","tax_order2","tax","2",80,"CHISEL","SCULPTURE","the_item",2.275,100
"5655","tax_order2","tax","2",81,"TOOTHBRUSH","FLOSS","the_item",3.502,80.42
"5655","tax_order2","tax","2",82,"GLOVES","APPLE","unr_item",3.024,0.93
"5655","tax_order2","tax","2",83,"CEMETARY","WORK","unr_item",3.493,0
"5655","tax_order2","tax","2",84,"BUDGET","FEATHER","unr_item",1.904,0
"5655","tax_order2","tax","2",85,"COW","FARM","the_item",2.225,100
"5655","tax_order2","tax","2",86,"CLUB","CLIMATE","unr_item",2.628,7.67
"5655","tax_order2","tax","2",87,"TUB","SHORE","unr_item",3.018,9.66
"5655","tax_order2","tax","2",88,"HELMET","BICYCLE","the_item",2.155,100
"5655","tax_order2","tax","2",89,"PENCIL","PEN","tax_item",2.715,89.95
"5655","tax_order2","tax","2",90,"FENDER","LAW","unr_item",3.302,40.61
"5655","tax_order2","tax","2",91,"STEREO","LION","unr_item",3.605,0
"5655","tax_order2","tax","2",92,"LEGS","CHAIR","the_item",2.144,0
"5655","tax_order2","tax","2",93,"SHIP","SAILOR","the_item",3.683,100
"5655","tax_order2","tax","2",94,"DANCE","SNAIL","unr_item",2.74,0
"5655","tax_order2","tax","2",95,"TEAM","CIRCLE","unr_item",3.579,0
"5655","tax_order2","tax","2",96,"HAIR","SODA","unr_item",1.492,0
"5655","tax_order2","tax","2",97,"ANTELOPE","CAMEL","tax_item",2.355,50
"5655","tax_order2","tax","2",98,"PACKAGE","CRATE","tax_item",2.414,97.22
"5655","tax_order2","tax","2",99,"DRESS","PANTS","tax_item",3.43,59.79
"5655","tax_order2","tax","2",100,"HANDCUFFS","POLICE","the_item",3.386,100
"5655","tax_order2","tax","2",101,"HOOD","POND","unr_item",2.644,0
"5655","tax_order2","tax","2",102,"SURGEON","BUTCHER","tax_item",3.361,2.91
"5655","tax_order2","tax","2",103,"THREAD","NEEDLE","the_item",2.647,100
"5655","tax_order2","tax","2",104,"DOG","CAT","tax_item",3.781,90.08
"5655","tax_order2","tax","2",105,"HOUSE","CODE","unr_item",2.506,20.11
"5655","tax_order2","tax","2",106,"GLOVE","SHOE","tax_item",3.766,40.21
"5655","tax_order2","tax","2",107,"SEED","KEY","unr_item",2.678,0
"5655","tax_order2","tax","2",108,"PENGUIN","MOVIE","unr_item",2.07,1.06
"5655","tax_order2","tax","2",109,"SPIDER","BEE","tax_item",2.567,30.16
"5655","tax_order2","tax","2",110,"ICE","TEETH","unr_item",1.967,2.65
"5655","tax_order2","tax","2",111,"BANK","FISH","unr_item",1.8,0
"5655","tax_order2","tax","2",112,"TENT","NOSE","unr_item",1.714,0
"5655","tax_order2","tax","2",113,"BILL","TROUT","unr_item",2.021,5.82
"5655","tax_order2","tax","2",114,"CRAB","LAUNDRY","unr_item",1.983,3.57
"5655","tax_order2","tax","2",115,"FLY","ANT","tax_item",2.847,10.05
"5655","tax_order2","tax","2",116,"MINT","SHEEP","unr_item",1.903,0.53
"5655","tax_order2","tax","2",117,"LUNGS","CIGARETTES","the_item",2.716,100
"5655","tax_order2","tax","2",118,"CEREAL","SPOON","the_item",2.416,100
"5660","the_order1","the","1",1,"LAW","FENDER","unr_item",21.946,14.29
"5660","the_order1","the","1",2,"CEREAL","BUSINESS","unr_item",7.109,0
"5660","the_order1","the","1",3,"BUTTERFLY","BEE","tax_item",6.443,80.69
"5660","the_order1","the","1",4,"PANTS","POCKET","the_item",3.871,100
"5660","the_order1","the","1",5,"RIVER","RAPIDS","the_item",6.426,80.03
"5660","the_order1","the","1",6,"SURGEON","KIDNEY","the_item",4.774,99.07
"5660","the_order1","the","1",7,"WALL","TIGER","unr_item",5.162,50
"5660","the_order1","the","1",8,"BAGEL","TORTILLA","tax_item",6.443,61.9
"5660","the_order1","the","1",9,"BANANA","MONKEY","the_item",3.61,93.52
"5660","the_order1","the","1",10,"COMPUTER","MOUSE","the_item",4.688,100
"5660","the_order1","the","1",11,"POLICE","FIREMAN","tax_item",3.862,86.64
"5660","the_order1","the","1",12,"SHEEP","MINT","unr_item",4.367,0.26
"5660","the_order1","the","1",13,"GLOVES","APPLE","unr_item",3.372,0.4
"5660","the_order1","the","1",14,"TRAILER","TRUCK","the_item",4.181,94.44
"5660","the_order1","the","1",15,"BED","CRIB","tax_item",4.283,96.69
"5660","the_order1","the","1",16,"CACTUS","CLUB","unr_item",8.621,0
"5660","the_order1","the","1",17,"HAMSTER","BOTTLE","unr_item",7.283,15.08
"5660","the_order1","the","1",18,"CHAIR","UMBRELLA","unr_item",7.572,80.16
"5660","the_order1","the","1",19,"FREEZER","EAR","unr_item",3.368,0
"5660","the_order1","the","1",20,"VOLCANO","HEAD","unr_item",6.472,0
"5660","the_order1","the","1",21,"COLD","SALESMAN","unr_item",5.364,10.45
"5660","the_order1","the","1",22,"BOOT","BASKETBALL","unr_item",2.994,0
"5660","the_order1","the","1",23,"SHORE","TUB","unr_item",3.074,50.13
"5660","the_order1","the","1",24,"PENCIL","ERASER","the_item",3.006,100
"5660","the_order1","the","1",25,"BREAD","KEYBOARD","unr_item",4.16,0.79
"5660","the_order1","the","1",26,"BAGEL","CROUTONS","tax_item",4.078,49.87
"5660","the_order1","the","1",27,"SOFA","CHAIR","tax_item",3.471,83.6
"5660","the_order1","the","1",28,"TREASON","ROBBERY","tax_item",6.25,71.03
"5660","the_order1","the","1",29,"BEER","BANK","unr_item",7.24,13.1
"5660","the_order1","the","1",30,"NOVEL","CEMETARY","unr_item",8.965,49.6
"5660","the_order1","the","1",31,"BASEBALL","FOOTBALL","tax_item",2.441,77.78
"5660","the_order1","the","1",32,"SHOVEL","NOSE","unr_item",3.487,0
"5660","the_order1","the","1",33,"PILOT","HAIR","unr_item",2.356,0
"5660","the_order1","the","1",34,"PAGE","WAVE","unr_item",3.166,0
"5660","the_order1","the","1",35,"WATER","BUG","unr_item",6.121,44.31
"5660","the_order1","the","1",36,"BONE","BRACKET","unr_item",5.5,0.26
"5660","the_order1","the","1",37,"PAN","OVEN","the_item",3.823,99.6
"5660","the_order1","the","1",38,"BICYCLE","CAR","tax_item",3.727,73.15
"5660","the_order1","the","1",39,"SLED","SNOW","the_item",2.93,99.6
"5660","the_order1","the","1",40,"CAPTAIN","SHIP","the_item",2.42,98.81
"5660","the_order1","the","1",41,"TOOTHBRUSH","COMB","tax_item",2.846,62.3
"5660","the_order1","the","1",42,"BONE","DOG","the_item",2.402,99.34
"5660","the_order1","the","1",43,"WEB","SPIDER","the_item",3.45,99.74
"5660","the_order1","the","1",44,"ROCKET","ASTRONAUT","the_item",2.772,99.87
"5660","the_order1","the","1",45,"COW","PIG","tax_item",3.676,63.76
"5660","the_order1","the","1",46,"SEATBELT","CAR","the_item",3.178,100
"5660","the_order1","the","1",47,"SEED","ROOF","unr_item",3.846,1.32
"5660","the_order1","the","1",48,"DONUT","CAKE","tax_item",2.386,64.42
"5660","the_order1","the","1",49,"KING","CROWN","the_item",3.438,99.6
"5660","the_order1","the","1",50,"TRUCK","LAMP","unr_item",5.008,0
"5660","the_order1","the","1",51,"SNAIL","DANCE","unr_item",3.368,0
"5660","the_order1","the","1",52,"LAWNMOWER","GRASS","the_item",4.096,98.81
"5660","the_order1","the","1",53,"WOUND","SHOP","unr_item",3.706,1.19
"5660","the_order1","the","1",54,"DRUM","BROCHURE","unr_item",3.082,0.13
"5660","the_order1","the","1",55,"ICE","PENGUIN","the_item",2.792,99.21
"5660","the_order1","the","1",56,"COUCH","SALON","unr_item",7.167,0.4
"5660","the_order1","the","1",57,"GLASSES","CAKE","unr_item",3.485,0
"5660","the_order1","the","1",58,"RACOON","PANDA","tax_item",2.327,48.54
"5660","the_order1","the","1",59,"DELIVERY","PACKAGE","the_item",3.536,99.47
"5660","the_order1","the","1",60,"BALLOON","LIBRARY","unr_item",3.302,0.4
"5660","the_order1","the","1",61,"CAN","BOTTLE","tax_item",2.726,51.32
"5660","the_order1","the","1",62,"METAL","SPOT","unr_item",2.697,0
"5660","the_order1","the","1",63,"PIN","NEEDLE","tax_item",3.32,99.87
"5660","the_order1","the","1",64,"TOAST","BISCUITS","tax_item",3.283,50.4
"5660","the_order1","the","1",65,"FOOT","HOUSE","unr_item",5.159,0
"5660","the_order1","the","1",66,"LION","STEREO","unr_item",3.267,0
"5660","the_order1","the","1",67,"FLY","WINGS","the_item",3.069,99.74
"5660","the_order1","the","1",68,"WAITRESS","RESTAURANT","the_item",2.847,100
"5660","the_order1","the","1",69,"PLUG","HAMMER","unr_item",3.456,0
"5660","the_order1","the","1",70,"CIGARETTES","ALCOHOL","tax_item",6.466,49.34
"5660","the_order1","the","1",71,"HYDRANT","WAX","unr_item",7.529,0.13
"5660","the_order1","the","1",72,"MOVIE","HOUSE","unr_item",6.398,49.87
"5660","the_order1","the","1",73,"CANOE","SHIP","tax_item",4.719,49.87
"5660","the_order1","the","1",74,"SOCIETY","ROD","unr_item",3.742,0
"5660","the_order1","the","1",75,"CIRCLE","TEAM","unr_item",4.688,80.42
"5660","the_order1","the","1",76,"SCHOOL","TOAD","unr_item",3.334,0
"5660","the_order1","the","1",77,"PASTOR","RABBI","tax_item",3.443,89.95
"5660","the_order1","the","1",78,"CHALK","SLIDE","unr_item",3.041,0.4
"5660","the_order1","the","1",79,"BULLET","SILVER","the_item",3.947,100
"5660","the_order1","the","1",80,"PEPPER","SHED","unr_item",6.153,0.53
"5660","the_order1","the","1",81,"BOMB","INTERNET","unr_item",4.549,0
"5660","the_order1","the","1",82,"FERRY","PATIO","unr_item",3.555,0
"5660","the_order1","the","1",83,"BERRY","CLOCK","unr_item",3.072,0
"5660","the_order1","the","1",84,"DESERT","CAMEL","the_item",4.589,99.74
"5660","the_order1","the","1",85,"COOKIE","CHOCOLATE","the_item",3.168,99.74
"5660","the_order1","the","1",86,"GLASS","BUDGET","unr_item",4.031,0.13
"5660","the_order1","the","1",87,"CLOUD","PLANT","unr_item",4.978,29.23
"5660","the_order1","the","1",88,"FOOT","SHOE","the_item",3.555,99.74
"5660","the_order1","the","1",89,"BISCUIT","SHRIMP","unr_item",3.798,48.41
"5660","the_order1","the","1",90,"SUBMARINE","AIRPLANE","tax_item",4.944,49.34
"5660","the_order1","the","1",91,"FIELD","COURT","tax_item",3.963,100
"5660","the_order1","the","1",92,"SAXOPHONE","HARP","tax_item",5.327,51.59
"5660","the_order1","the","1",93,"GUITAR","WINDOW","unr_item",2.955,0
"5660","the_order1","the","1",94,"CHISEL","KNIFE","tax_item",6.241,30.16
"5660","the_order1","the","1",95,"ORANGE","COCONUT","tax_item",2.557,49.21
"5660","the_order1","the","1",96,"PARK","STRING","unr_item",2.962,0.66
"5660","the_order1","the","1",97,"MILK","COW","the_item",4.438,99.6
"5660","the_order1","the","1",98,"HAPPY","SMILE","the_item",2.56,99.34
"5660","the_order1","the","1",99,"GARLIC","ONION","tax_item",3.238,50.79
"5660","the_order1","the","1",100,"RECEPTIONIST","TELEPHONE","the_item",5.139,99.6
"5660","the_order1","the","1",101,"SWAN","BEACH","unr_item",4.468,49.21
"5660","the_order1","the","1",102,"LAUNDRY","CARAVAN","unr_item",4.864,0
"5660","the_order1","the","1",103,"SHEET","CROW","unr_item",2.68,1.06
"5660","the_order1","the","1",104,"PARTY","BEER","the_item",8.364,70.24
"5660","the_order1","the","1",105,"ENGINE","CORK","unr_item",6.279,49.87
"5660","the_order1","the","1",106,"CHISEL","HOTEL","unr_item",3.232,0.26
"5660","the_order1","the","1",107,"CARPET","OUTLET","unr_item",4.253,1.19
"5660","the_order1","the","1",108,"SPOON","LADLE","tax_item",4.754,1.59
"5660","the_order1","the","1",109,"NEST","BIRD","the_item",3.427,99.47
"5660","the_order1","the","1",110,"COW","BUFFALO","tax_item",5.237,78.44
"5660","the_order1","the","1",111,"BOWL","CUP","tax_item",2.714,71.56
"5660","the_order1","the","1",112,"CITY","VILLAGE","tax_item",3.199,82.54
"5660","the_order1","the","1",113,"DOG","ICE","unr_item",2.982,0.93
"5660","the_order1","the","1",114,"ASPHALT","PLIERS","unr_item",6.816,0.13
"5660","the_order1","the","1",115,"BILL","CHILD","unr_item",5.665,1.06
"5660","the_order1","the","1",116,"QUEEN","HOOD","unr_item",2.389,0
"5660","the_order1","the","1",117,"SHAMPOO","BLEACH","tax_item",7.692,35.71
"5660","the_order1","the","1",118,"CABINET","WHALE","unr_item",5.754,0
"5661","the_order2","the","2",1,"INTERNET","BOMB","unr_item",11.881,23.28
"5661","the_order2","the","2",2,"DRESS","PANTS","tax_item",9.306,52.38
"5661","the_order2","the","2",3,"LAUNDRY","CRAB","unr_item",10.009,6.22
"5661","the_order2","the","2",4,"COUCH","ATHLETE","unr_item",6.756,24.6
"5661","the_order2","the","2",5,"CEREAL","SPOON","the_item",6.893,94.44
"5661","the_order2","the","2",6,"JAZZ","SAXOPHONE","the_item",4.331,93.25
"5661","the_order2","the","2",7,"CAPTAIN","PILOT","tax_item",6.02,75.13
"5661","the_order2","the","2",8,"GOOSE","PENGUIN","tax_item",3.61,55.56
"5661","the_order2","the","2",9,"AIRPLANE","HAMMER","unr_item",7.161,14.55
"5661","the_order2","the","2",10,"SOCIETY","ROD","unr_item",13.932,5.82
"5661","the_order2","the","2",11,"NOSE","SHOVEL","unr_item",4.084,6.75
"5661","the_order2","the","2",12,"BOOT","BASKETBALL","unr_item",7.787,6.61
"5661","the_order2","the","2",13,"BEER","JUICE","tax_item",12.197,24.74
"5661","the_order2","the","2",14,"OCEAN","SUBMARINE","the_item",3.744,85.32
"5661","the_order2","the","2",15,"SCHOOL","GAS","unr_item",7.533,24.74
"5661","the_order2","the","2",16,"CAR","BIKE","tax_item",10.919,64.68
"5661","the_order2","the","2",17,"BEE","SPIDER","tax_item",3.558,64.15
"5661","the_order2","the","2",18,"TRUCK","BUS","tax_item",5.305,76.06
"5661","the_order2","the","2",19,"LION","TREE","unr_item",4.771,25.66
"5661","the_order2","the","2",20,"WINDOW","LEAF","unr_item",10.974,5.82
"5661","the_order2","the","2",21,"TABLET","COMPUTER","tax_item",5.911,84.52
"5661","the_order2","the","2",22,"CUP","GLASSES","unr_item",3.018,97.22
"5661","the_order2","the","2",23,"BABY","BOTTLE","the_item",3.943,100
"5661","the_order2","the","2",24,"CLUB","CLIMATE","unr_item",6.207,5.69
"5661","the_order2","the","2",25,"GRAVY","BISCUITS","the_item",3.926,96.56
"5661","the_order2","the","2",26,"WALL","CARD","unr_item",4.332,5.03
"5661","the_order2","the","2",27,"ASPHALT","COACH","unr_item",10.714,34.52
"5661","the_order2","the","2",28,"RECEPTIONIST","HOSTESS","tax_item",4.012,83.99
"5661","the_order2","the","2",29,"STEW","TUB","unr_item",6.039,25
"5661","the_order2","the","2",30,"SAILOR","SHIP","the_item",4.813,99.21
"5661","the_order2","the","2",31,"WORK","CEMETARY","unr_item",4.756,14.15
"5661","the_order2","the","2",32,"COLD","KNOB","unr_item",6.67,13.36
"5661","the_order2","the","2",33,"BAT","BIRD","tax_item",15.32,59.79
"5661","the_order2","the","2",34,"HOTEL","PARCEL","unr_item",7.334,49.87
"5661","the_order2","the","2",35,"HANDCUFFS","POLICE","the_item",3.192,100
"5661","the_order2","the","2",36,"ROCKET","MISSILE","tax_item",4.863,80.03
"5661","the_order2","the","2",37,"CABINET","WHALE","unr_item",5.274,0.13
"5661","the_order2","the","2",38,"CALCIUM","BEACH","unr_item",4.556,9.92
"5661","the_order2","the","2",39,"CITY","AIRPORT","the_item",4.705,89.81
"5661","the_order2","the","2",40,"SILVER","GOLD","tax_item",3.929,90.74
"5661","the_order2","the","2",41,"CRIB","BABY","the_item",2.473,99.6
"5661","the_order2","the","2",42,"PATIO","FERRY","unr_item",4.553,9.92
"5661","the_order2","the","2",43,"LAKE","RIVER","tax_item",3.57,90.08
"5661","the_order2","the","2",44,"CONCRETE","CEREAL","unr_item",2.613,0.26
"5661","the_order2","the","2",45,"DANCE","PELICAN","unr_item",3.85,0.4
"5661","the_order2","the","2",46,"LAKE","DRUM","unr_item",4.017,0.93
"5661","the_order2","the","2",47,"SHEEP","FLUTE","unr_item",3.329,1.19
"5661","the_order2","the","2",48,"QUARTERBACK","FOOTBALL","the_item",3.048,99.6
"5661","the_order2","the","2",49,"CROW","DOCTOR","unr_item",3.199,0
"5661","the_order2","the","2",50,"LIBRARY","BALLOON","unr_item",8.239,0.93
"5661","the_order2","the","2",51,"SCISSORS","LAWNMOWER","tax_item",8.578,20.5
"5661","the_order2","the","2",52,"SCULPTURE","CHISEL","the_item",3.286,78.97
"5661","the_order2","the","2",53,"TOILET","SHED","unr_item",2.898,9.52
"5661","the_order2","the","2",54,"BUTCHER","SURGEON","tax_item",4.032,50.13
"5661","the_order2","the","2",55,"TROUT","CHILD","unr_item",3.302,9.79
"5661","the_order2","the","2",56,"STRING","HAND","unr_item",4.22,40.34
"5661","the_order2","the","2",57,"LUNGS","CIGARETTES","the_item",10.59,0
"5661","the_order2","the","2",58,"PACKAGE","CRATE","tax_item",3.643,90.21
"5661","the_order2","the","2",59,"RAIN","SNOW","tax_item",11.258,10.71
"5661","the_order2","the","2",60,"CHEESE","BUG","unr_item",12.659,20.11
"5661","the_order2","the","2",61,"ANT","FLY","tax_item",5.193,79.63
"5661","the_order2","the","2",62,"HAT","CROWN","tax_item",8.591,90.74
"5661","the_order2","the","2",63,"WAVE","PAGE","unr_item",3.57,9.79
"5661","the_order2","the","2",64,"BANK","ROBBERY","the_item",13.709,79.89
"5661","the_order2","the","2",65,"BANANA","UMBRELLA","unr_item",2.471,0.13
"5661","the_order2","the","2",66,"SHOWER","SHAMPOO","the_item",3.828,100
"5661","the_order2","the","2",67,"CHAIR","LEGS","the_item",6.014,90.87
"5661","the_order2","the","2",68,"SEED","ROOF","unr_item",4.006,8.6
"5661","the_order2","the","2",69,"SALAD","CROUTONS","the_item",3.973,98.41
"5661","the_order2","the","2",70,"CODE","FOOT","unr_item",3.588,0
"5661","the_order2","the","2",71,"MOVIE","HOUSE","unr_item",3.22,39.42
"5661","the_order2","the","2",72,"COCONUT","BEACH","the_item",3.645,59.66
"5661","the_order2","the","2",73,"TORTILLA","BEANS","the_item",3.537,89.42
"5661","the_order2","the","2",74,"PHONE","LAMP","unr_item",6.404,9.92
"5661","the_order2","the","2",75,"HYDRANT","WRIST","unr_item",3.709,0
"5661","the_order2","the","2",76,"GRASS","COW","the_item",8.029,89.55
"5661","the_order2","the","2",77,"HAPPY","SAD","tax_item",8.828,10.32
"5661","the_order2","the","2",78,"OVEN","MICROWAVE","tax_item",3.737,89.95
"5661","the_order2","the","2",79,"ANTELOPE","CAMEL","tax_item",7.276,11.24
"5661","the_order2","the","2",80,"CAKE","CANDLE","the_item",2.658,89.68
"5661","the_order2","the","2",81,"BELL","BERRY","unr_item",3.12,0
"5661","the_order2","the","2",82,"WHIP","LAW","unr_item",5.783,20.37
"5661","the_order2","the","2",83,"FREEZER","BENCH","unr_item",3.894,0.66
"5661","the_order2","the","2",84,"TEA","CUP","the_item",2.135,99.47
"5661","the_order2","the","2",85,"BALL","BREAD","unr_item",3.555,10.32
"5661","the_order2","the","2",86,"PAMPHLET","ENGINE","unr_item",3.994,0
"5661","the_order2","the","2",87,"BEAR","MONKEY","tax_item",5.866,10.19
"5661","the_order2","the","2",88,"WOUND","SHOP","unr_item",5.216,0
"5661","the_order2","the","2",89,"BISCUIT","SHRIMP","unr_item",8.269,1.46
"5661","the_order2","the","2",90,"CAT","DOG","tax_item",5.497,8.99
"5661","the_order2","the","2",91,"FLOSS","TOOTHBRUSH","the_item",3.676,99.34
"5661","the_order2","the","2",92,"BANK","BEER","unr_item",4.658,9.39
"5661","the_order2","the","2",93,"BAMBOO","PANDA","the_item",4.535,100
"5661","the_order2","the","2",94,"PENCIL","PEN","tax_item",3.115,99.21
"5661","the_order2","the","2",95,"LEMONADE","MILK","tax_item",4.196,0
"5661","the_order2","the","2",96,"BICYCLE","HELMET","the_item",2.223,100
"5661","the_order2","the","2",97,"METAL","SPOT","unr_item",3.27,9.26
"5661","the_order2","the","2",98,"SKY","CHALK","unr_item",3.151,2.38
"5661","the_order2","the","2",99,"CIRCLE","SAUCE","unr_item",2.32,3.17
"5661","the_order2","the","2",100,"RABBI","TEMPLE","the_item",4.893,89.29
"5661","the_order2","the","2",101,"BUDGET","FEATHER","unr_item",3.185,0.13
"5661","the_order2","the","2",102,"FIELD","GRASS","the_item",2.239,100
"5661","the_order2","the","2",103,"BONE","RAIN","unr_item",3.369,0
"5661","the_order2","the","2",104,"APPLE","GLOVES","unr_item",2.65,9.52
"5661","the_order2","the","2",105,"SOCK","CARPET","unr_item",3.893,60.05
"5661","the_order2","the","2",106,"BEE","HONEY","the_item",2.239,100
"5661","the_order2","the","2",107,"PLANT","CLOUD","unr_item",3.135,10.58
"5661","the_order2","the","2",108,"QUEEN","HOOD","unr_item",3.117,0
"5661","the_order2","the","2",109,"HEAD","BRICK","unr_item",2.662,4.23
"5661","the_order2","the","2",110,"BISCUIT","COOKIE","tax_item",2.696,69.58
"5661","the_order2","the","2",111,"THREAD","NEEDLE","the_item",2.087,99.87
"5661","the_order2","the","2",112,"SODA","HAIR","unr_item",2.527,3.17
"5661","the_order2","the","2",113,"WAITRESS","STEWARDESS","tax_item",5.08,40.21
"5661","the_order2","the","2",114,"COW","FARM","the_item",2.605,89.68
"5661","the_order2","the","2",115,"GARLIC","VAMPIRE","the_item",4.552,0
"5661","the_order2","the","2",116,"TEETH","ICE","unr_item",13.479,10.71
"5661","the_order2","the","2",117,"MIRROR","HAMSTER","unr_item",5.019,23.94
"5661","the_order2","the","2",118,"GLOVE","SHOE","tax_item",4.74,60.45
"5665","the_order2","the","2",1,"SHEEP","FLUTE","unr_item",19.781,10.19
"5665","the_order2","the","2",2,"BEE","HONEY","the_item",8.894,89.29
"5665","the_order2","the","2",3,"HANDCUFFS","POLICE","the_item",7.463,77.65
"5665","the_order2","the","2",4,"HAND","PARK","unr_item",11.165,50
"5665","the_order2","the","2",5,"SHOWER","SHAMPOO","the_item",10.249,93.92
"5665","the_order2","the","2",6,"COW","FARM","the_item",7.311,99.87
"5665","the_order2","the","2",7,"CUP","TEA","the_item",4.827,89.81
"5665","the_order2","the","2",8,"SCISSORS","LAWNMOWER","tax_item",6.059,80.03
"5665","the_order2","the","2",9,"CARAVAN","LAUNDRY","unr_item",14.493,39.55
"5665","the_order2","the","2",10,"BEACH","SWAN","unr_item",14.236,54.37
"5665","the_order2","the","2",11,"PHONE","TRUCK","unr_item",6.957,19.97
"5665","the_order2","the","2",12,"CEREAL","BUSINESS","unr_item",8.003,19.84
"5665","the_order2","the","2",13,"SHIP","SAILOR","the_item",5.319,100
"5665","the_order2","the","2",14,"ANTELOPE","CAMEL","tax_item",11.971,90.08
"5665","the_order2","the","2",15,"DRIVEWAY","APPLE","unr_item",9.869,9.79
"5665","the_order2","the","2",16,"TROUT","CHILD","unr_item",14.016,29.76
"5665","the_order2","the","2",17,"TRUCK","BUS","tax_item",7.604,100
"5665","the_order2","the","2",18,"JAZZ","SAXOPHONE","the_item",3.88,99.87
"5665","the_order2","the","2",19,"BANK","BEER","unr_item",10.384,30.42
"5665","the_order2","the","2",20,"GLOVE","SHOE","tax_item",6.637,90.08
"5665","the_order2","the","2",21,"FOOTBALL","QUARTERBACK","the_item",4.032,89.95
"5665","the_order2","the","2",22,"CLUB","CLIMATE","unr_item",6.481,79.63
"5665","the_order2","the","2",23,"SHOVEL","TENT","unr_item",5.941,60.19
"5665","the_order2","the","2",24,"VAMPIRE","GARLIC","the_item",7.954,83.99
"5665","the_order2","the","2",25,"CLOUD","NECKLACE","unr_item",7.545,20.24
"5665","the_order2","the","2",26,"BANK","ROBBERY","the_item",6.345,90.08
"5665","the_order2","the","2",27,"CEREAL","SPOON","the_item",2.865,99.6
"5665","the_order2","the","2",28,"CAR","BIKE","tax_item",5.803,79.5
"5665","the_order2","the","2",29,"CYMBAL","ROD","unr_item",6.951,80.42
"5665","the_order2","the","2",30,"PENCIL","PEN","tax_item",2.463,100
"5665","the_order2","the","2",31,"CHAIR","LEGS","the_item",4.992,80.56
"5665","the_order2","the","2",32,"COMPUTER","TABLET","tax_item",4.351,89.81
"5665","the_order2","the","2",33,"CAPTAIN","PILOT","tax_item",4.034,90.48
"5665","the_order2","the","2",34,"SNOW","SHOP","unr_item",19.796,50.13
"5665","the_order2","the","2",35,"BASKETBALL","BOOT","unr_item",7.594,19.84
"5665","the_order2","the","2",36,"SCULPTURE","CHISEL","the_item",4.036,100
"5665","the_order2","the","2",37,"LEMONADE","MILK","tax_item",7.697,76.46
"5665","the_order2","the","2",38,"WRIST","HYDRANT","unr_item",9.603,28.97
"5665","the_order2","the","2",39,"SILVER","GOLD","tax_item",2.663,99.87
"5665","the_order2","the","2",40,"METAL","SHARK","unr_item",6.453,19.71
"5665","the_order2","the","2",41,"CARD","TIGER","unr_item",8.681,9.52
"5665","the_order2","the","2",42,"JUICE","BEER","tax_item",3.538,80.03
"5665","the_order2","the","2",43,"OUTLET","SOCK","unr_item",10.553,19.71
"5665","the_order2","the","2",44,"CRIB","BABY","the_item",3.385,99.87
"5665","the_order2","the","2",45,"OVEN","MICROWAVE","tax_item",3.116,99.34
"5665","the_order2","the","2",46,"PACKAGE","CRATE","tax_item",5.439,89.29
"5665","the_order2","the","2",47,"ROOF","KEY","unr_item",4.13,69.58
"5665","the_order2","the","2",48,"TUB","SHORE","unr_item",10.251,19.97
"5665","the_order2","the","2",49,"BALLOON","LIBRARY","unr_item",4.036,19.71
"5665","the_order2","the","2",50,"FLY","ANT","tax_item",7.969,100
"5665","the_order2","the","2",51,"ROCKET","MISSILE","tax_item",6.331,94.18
"5665","the_order2","the","2",52,"CHALK","SLIDE","unr_item",9.899,59.39
"5665","the_order2","the","2",53,"CIGARETTES","LUNGS","the_item",2.747,100
"5665","the_order2","the","2",54,"BAT","BIRD","tax_item",3.216,99.87
"5665","the_order2","the","2",55,"TREE","STEREO","unr_item",8.749,0.13
"5665","the_order2","the","2",56,"DRESS","PANTS","tax_item",4.722,89.95
"5665","the_order2","the","2",57,"SALESMAN","COLD","unr_item",22.928,69.97
"5665","the_order2","the","2",58,"BEACH","COCONUT","the_item",2.643,100
"5665","the_order2","the","2",59,"CROUTONS","SALAD","the_item",2.613,100
"5665","the_order2","the","2",60,"COACH","ASPHALT","unr_item",11.051,85.05
"5665","the_order2","the","2",61,"FEATHER","BUDGET","unr_item",13.495,19.18
"5665","the_order2","the","2",62,"FOOT","CODE","unr_item",7.26,20.37
"5665","the_order2","the","2",63,"CHAIR","UMBRELLA","unr_item",6.546,29.89
"5665","the_order2","the","2",64,"WINDOW","GUITAR","unr_item",8.157,10.19
"5665","the_order2","the","2",65,"WATER","CHEESE","unr_item",3.945,70.11
"5665","the_order2","the","2",66,"BRICK","VOLCANO","unr_item",9.64,39.68
"5665","the_order2","the","2",67,"RIVER","LAKE","tax_item",2.542,89.95
"5665","the_order2","the","2",68,"CROWN","HAT","tax_item",4.52,75.26
"5665","the_order2","the","2",69,"FREEZER","EAR","unr_item",3.268,14.68
"5665","the_order2","the","2",70,"BEE","SPIDER","tax_item",1.949,100
"5665","the_order2","the","2",71,"MONKEY","BEAR","tax_item",3.268,79.63
"5665","the_order2","the","2",72,"LAW","WHIP","unr_item",3.915,0
"5665","the_order2","the","2",73,"ATHLETE","COUCH","unr_item",8.851,59.52
"5665","the_order2","the","2",74,"KEYBOARD","BALL","unr_item",5.665,0
"5665","the_order2","the","2",75,"BABY","BOTTLE","the_item",2.441,100
"5665","the_order2","the","2",76,"GRAVY","BISCUITS","the_item",2.871,99.6
"5665","the_order2","the","2",77,"SHEET","CROW","unr_item",7.09,19.71
"5665","the_order2","the","2",78,"GRASS","FIELD","the_item",2.337,100
"5665","the_order2","the","2",79,"HAMMER","AIRPLANE","unr_item",8.033,30.42
"5665","the_order2","the","2",80,"HOUSE","MOVIE","unr_item",4.57,49.87
"5665","the_order2","the","2",81,"COW","GRASS","the_item",3.27,99.74
"5665","the_order2","the","2",82,"AUNT","INTERNET","unr_item",7.187,0
"5665","the_order2","the","2",83,"TEAM","SAUCE","unr_item",14.75,20.5
"5665","the_order2","the","2",84,"BRACKET","BONE","unr_item",5.46,59.79
"5665","the_order2","the","2",85,"WHALE","CABINET","unr_item",2.986,0
"5665","the_order2","the","2",86,"SHED","TOILET","unr_item",13.13,29.89
"5665","the_order2","the","2",87,"NEEDLE","THREAD","the_item",2.731,99.07
"5665","the_order2","the","2",88,"WAITRESS","STEWARDESS","tax_item",6.582,79.89
"5665","the_order2","the","2",89,"HAIR","SODA","unr_item",4.791,9.52
"5665","the_order2","the","2",90,"TEETH","ICE","unr_item",2.574,59.66
"5665","the_order2","the","2",91,"PAMPHLET","CORK","unr_item",4.334,0
"5665","the_order2","the","2",92,"GOOSE","PENGUIN","tax_item",2.793,90.21
"5665","the_order2","the","2",93,"COOKIE","BISCUIT","tax_item",2.583,90.34
"5665","the_order2","the","2",94,"SURGEON","BUTCHER","tax_item",6.673,19.84
"5665","the_order2","the","2",95,"OCEAN","SUBMARINE","the_item",2.833,100
"5665","the_order2","the","2",96,"DANCE","PELICAN","unr_item",8.243,40.34
"5665","the_order2","the","2",97,"FUR","PAGE","unr_item",3.2,0
"5665","the_order2","the","2",98,"MIRROR","HAMSTER","unr_item",2.769,0
"5665","the_order2","the","2",99,"CAT","DOG","tax_item",5.297,89.42
"5665","the_order2","the","2",100,"COTTON","BISCUIT","unr_item",2.645,0
"5665","the_order2","the","2",101,"TORTILLA","BEANS","the_item",3.931,79.63
"5665","the_order2","the","2",102,"HOTEL","PARCEL","unr_item",5.466,49.87
"5665","the_order2","the","2",103,"WORK","CEMETARY","unr_item",4.079,30.16
"5665","the_order2","the","2",104,"TOOTHBRUSH","FLOSS","the_item",2.409,100
"5665","the_order2","the","2",105,"TOAD","SCHOOL","unr_item",4.49,59.92
"5665","the_order2","the","2",106,"AIRPORT","CITY","the_item",6.496,79.76
"5665","the_order2","the","2",107,"POND","HOOD","unr_item",4.686,9.92
"5665","the_order2","the","2",108,"TEMPLE","RABBI","the_item",3.821,100
"5665","the_order2","the","2",109,"CAKE","CUP","unr_item",8.118,49.87
"5665","the_order2","the","2",110,"CAKE","CANDLE","the_item",3.626,90.08
"5665","the_order2","the","2",111,"CLOCK","BELL","unr_item",4.026,79.23
"5665","the_order2","the","2",112,"HAPPY","SAD","tax_item",11.351,79.37
"5665","the_order2","the","2",113,"BROCHURE","DRUM","unr_item",4.049,0
"5665","the_order2","the","2",114,"BAMBOO","PANDA","the_item",2.683,100
"5665","the_order2","the","2",115,"RAIN","SNOW","tax_item",4.212,89.42
"5665","the_order2","the","2",116,"FERRY","PATIO","unr_item",4.219,10.19
"5665","the_order2","the","2",117,"HELMET","BICYCLE","the_item",2.184,100
"5665","the_order2","the","2",118,"HOSTESS","RECEPTIONIST","tax_item",5.877,84.26
"5657","tax_order2","tax","2",1,"WORK","CEMETARY","unr_item",10.885,19.58
"5657","tax_order2","tax","2",2,"GOOSE","PENGUIN","tax_item",3.83,69.71
"5657","tax_order2","tax","2",3,"CROUTONS","SALAD","the_item",5.688,59.79
"5657","tax_order2","tax","2",4,"COCONUT","BEACH","the_item",4.785,69.84
"5657","tax_order2","tax","2",5,"LEGS","CHAIR","the_item",4.149,69.97
"5657","tax_order2","tax","2",6,"PEN","PENCIL","tax_item",3.455,99.6
"5657","tax_order2","tax","2",7,"MIRROR","HAMSTER","unr_item",4.332,18.92
"5657","tax_order2","tax","2",8,"ASPHALT","PLIERS","unr_item",3.445,0.26
"5657","tax_order2","tax","2",9,"CARD","TIGER","unr_item",3.819,0.13
"5657","tax_order2","tax","2",10,"BOTTLE","BABY","the_item",6.395,0.4
"5657","tax_order2","tax","2",11,"BEAR","MONKEY","tax_item",3.243,59.39
"5657","tax_order2","tax","2",12,"TROUT","BILL","unr_item",2.892,1.46
"5657","tax_order2","tax","2",13,"TRUCK","BUS","tax_item",2.436,90.08
"5657","tax_order2","tax","2",14,"OVEN","MICROWAVE","tax_item",2.268,99.21
"5657","tax_order2","tax","2",15,"TOILET","PEPPER","unr_item",2.73,0.26
"5657","tax_order2","tax","2",16,"BISCUIT","COOKIE","tax_item",4.131,66.67
"5657","tax_order2","tax","2",17,"PLANT","NECKLACE","unr_item",2.616,0.93
"5657","tax_order2","tax","2",18,"SALON","COUCH","unr_item",2.928,1.59
"5657","tax_order2","tax","2",19,"OCEAN","SUBMARINE","the_item",2.556,1.59
"5657","tax_order2","tax","2",20,"CORK","PAMPHLET","unr_item",3.091,1.72
"5657","tax_order2","tax","2",21,"HOUSE","FOOT","unr_item",2.441,1.19
"5657","tax_order2","tax","2",22,"GLASS","FEATHER","unr_item",2.023,2.12
"5657","tax_order2","tax","2",23,"COW","GRASS","the_item",1.881,2.65
"5657","tax_order2","tax","2",24,"STAIRS","LIBRARY","unr_item",2.659,20.37
"5657","tax_order2","tax","2",25,"SHIP","SAILOR","the_item",2.023,21.56
"5657","tax_order2","tax","2",26,"HYDRANT","WRIST","unr_item",2.507,21.96
"5657","tax_order2","tax","2",27,"SHEEP","MINT","unr_item",2.537,21.16
"5657","tax_order2","tax","2",28,"STEREO","TREE","unr_item",2.286,22.09
"5657","tax_order2","tax","2",29,"MILK","LEMONADE","tax_item",5.176,62.04
"5657","tax_order2","tax","2",30,"STEWARDESS","WAITRESS","tax_item",2.91,98.81
"5657","tax_order2","tax","2",31,"COW","FARM","the_item",2.483,28.84
"5657","tax_order2","tax","2",32,"CAR","BIKE","tax_item",2.498,48.81
"5657","tax_order2","tax","2",33,"CABINET","WHALE","unr_item",2.424,3.17
"5657","tax_order2","tax","2",34,"SPIDER","BEE","tax_item",2.457,27.38
"5657","tax_order2","tax","2",35,"SAUCE","CIRCLE","unr_item",2.715,0
"5657","tax_order2","tax","2",36,"LAWNMOWER","SCISSORS","tax_item",2.35,0
"5657","tax_order2","tax","2",37,"BOWL","FERRY","unr_item",4.035,0.93
"5657","tax_order2","tax","2",38,"GOLD","SILVER","tax_item",2.272,91.4
"5657","tax_order2","tax","2",39,"SHARK","SPOT","unr_item",2.268,2.51
"5657","tax_order2","tax","2",40,"RIVER","LAKE","tax_item",2.799,99.07
"5657","tax_order2","tax","2",41,"BEE","HONEY","the_item",3.053,17.46
"5657","tax_order2","tax","2",42,"STRING","PARK","unr_item",2.299,29.37
"5657","tax_order2","tax","2",43,"MOVIE","HOUSE","unr_item",1.781,5.03
"5657","tax_order2","tax","2",44,"CAPTAIN","PILOT","tax_item",2.743,95.63
"5657","tax_order2","tax","2",45,"RECEPTIONIST","HOSTESS","tax_item",2.4,96.56
"5657","tax_order2","tax","2",46,"COLD","KNOB","unr_item",2.197,3.31
"5657","tax_order2","tax","2",47,"ROBBERY","BANK","the_item",3.365,25.13
"5657","tax_order2","tax","2",48,"POLICE","HANDCUFFS","the_item",1.883,19.71
"5657","tax_order2","tax","2",49,"WATER","CHEESE","unr_item",2.605,18.65
"5657","tax_order2","tax","2",50,"HAT","CROWN","tax_item",2.556,68.92
"5657","tax_order2","tax","2",51,"LAUNDRY","CRAB","unr_item",2.654,1.32
"5657","tax_order2","tax","2",52,"BOOT","SCREEN","unr_item",2.304,2.12
"5657","tax_order2","tax","2",53,"AIRPORT","CITY","the_item",2.337,10.45
"5657","tax_order2","tax","2",54,"CEREAL","BUSINESS","unr_item",2.416,0.93
"5657","tax_order2","tax","2",55,"FREEZER","EAR","unr_item",2.488,1.06
"5657","tax_order2","tax","2",56,"CIGARETTES","LUNGS","the_item",2.555,2.51
"5657","tax_order2","tax","2",57,"CRIB","BABY","the_item",2.318,0
"5657","tax_order2","tax","2",58,"DRIVEWAY","APPLE","unr_item",2.052,2.91
"5657","tax_order2","tax","2",59,"UMBRELLA","BANANA","unr_item",1.725,2.12
"5657","tax_order2","tax","2",60,"CARPET","OUTLET","unr_item",2.302,0.79
"5657","tax_order2","tax","2",61,"BRICK","HEAD","unr_item",2.03,3.7
"5657","tax_order2","tax","2",62,"SHEET","DOCTOR","unr_item",2.084,0.93
"5657","tax_order2","tax","2",63,"BAT","BIRD","tax_item",2.447,69.18
"5657","tax_order2","tax","2",64,"SHOWER","SHAMPOO","the_item",2.668,27.38
"5657","tax_order2","tax","2",65,"SHOE","GLOVE","tax_item",5.266,45.9
"5657","tax_order2","tax","2",66,"TABLET","COMPUTER","tax_item",2.854,94.97
"5657","tax_order2","tax","2",67,"CLIMATE","CLUB","unr_item",2.912,0.79
"5657","tax_order2","tax","2",68,"PANTS","DRESS","tax_item",2.053,38.89
"5657","tax_order2","tax","2",69,"BEANS","TORTILLA","the_item",3.229,8.07
"5657","tax_order2","tax","2",70,"PANDA","BAMBOO","the_item",3.053,10.05
"5657","tax_order2","tax","2",71,"ROOF","SEED","unr_item",2.652,12.04
"5657","tax_order2","tax","2",72,"DRUM","LAKE","unr_item",1.894,6.08
"5657","tax_order2","tax","2",73,"CHISEL","HOTEL","unr_item",3.18,7.01
"5657","tax_order2","tax","2",74,"GRASS","FIELD","the_item",3.115,72.62
"5657","tax_order2","tax","2",75,"BALL","KEYBOARD","unr_item",2.403,0
"5657","tax_order2","tax","2",76,"HELMET","BICYCLE","the_item",3.227,9.92
"5657","tax_order2","tax","2",77,"TEA","CUP","the_item",2.248,14.02
"5657","tax_order2","tax","2",78,"SOCIETY","ROD","unr_item",2.793,1.72
"5657","tax_order2","tax","2",79,"CHISEL","SCULPTURE","the_item",2.557,10.98
"5657","tax_order2","tax","2",80,"DOG","CAT","tax_item",2.559,78.44
"5657","tax_order2","tax","2",81,"TEMPLE","RABBI","the_item",2.823,15.34
"5657","tax_order2","tax","2",82,"SODA","PILOT","unr_item",2.129,0.93
"5657","tax_order2","tax","2",83,"ANT","FLY","tax_item",2.699,82.01
"5657","tax_order2","tax","2",84,"JUICE","BEER","tax_item",4.688,79.89
"5657","tax_order2","tax","2",85,"BRACKET","RAIN","unr_item",3.526,5.95
"5657","tax_order2","tax","2",86,"GAS","TOAD","unr_item",1.744,3.44
"5657","tax_order2","tax","2",87,"PAGE","WAVE","unr_item",2.536,2.12
"5657","tax_order2","tax","2",88,"WINDOW","LEAF","unr_item",1.777,1.32
"5657","tax_order2","tax","2",89,"BUTCHER","SURGEON","tax_item",2.636,58.33
"5657","tax_order2","tax","2",90,"SHOP","SNOW","unr_item",1.758,1.46
"5657","tax_order2","tax","2",91,"TUB","STEW","unr_item",1.576,3.7
"5657","tax_order2","tax","2",92,"PACKAGE","CRATE","tax_item",2.861,69.05
"5657","tax_order2","tax","2",93,"JAZZ","SAXOPHONE","the_item",1.647,2.78
"5657","tax_order2","tax","2",94,"FENDER","WHIP","unr_item",1.678,5.69
"5657","tax_order2","tax","2",95,"BISCUITS","GRAVY","the_item",1.811,4.63
"5657","tax_order2","tax","2",96,"QUEEN","HOOD","unr_item",2.774,8.99
"5657","tax_order2","tax","2",97,"CALCIUM","BEACH","unr_item",2.233,3.7
"5657","tax_order2","tax","2",98,"ICE","TEETH","unr_item",2.504,8.07
"5657","tax_order2","tax","2",99,"GARLIC","VAMPIRE","the_item",2.118,1.46
"5657","tax_order2","tax","2",100,"BOMB","INTERNET","unr_item",2.284,2.91
"5657","tax_order2","tax","2",101,"TOOTHBRUSH","FLOSS","the_item",1.816,5.42
"5657","tax_order2","tax","2",102,"ANTELOPE","CAMEL","tax_item",1.841,89.15
"5657","tax_order2","tax","2",103,"CAKE","CANDLE","the_item",2.403,14.15
"5657","tax_order2","tax","2",104,"SPOON","CEREAL","the_item",2.321,15.87
"5657","tax_order2","tax","2",105,"PHONE","TRUCK","unr_item",3.243,17.86
"5657","tax_order2","tax","2",106,"CUP","GLASSES","unr_item",4.494,40.48
"5657","tax_order2","tax","2",107,"THREAD","NEEDLE","the_item",3.22,29.23
"5657","tax_order2","tax","2",108,"SKY","SLIDE","unr_item",1.817,17.72
"5657","tax_order2","tax","2",109,"ROCKET","MISSILE","tax_item",2.17,99.47
"5657","tax_order2","tax","2",110,"HAMMER","AIRPLANE","unr_item",2.842,0
"5657","tax_order2","tax","2",111,"COTTON","SHRIMP","unr_item",3.911,16.53
"5657","tax_order2","tax","2",112,"RAIN","SNOW","tax_item",2.539,75.93
"5657","tax_order2","tax","2",113,"PELICAN","DANCE","unr_item",2.662,17.46
"5657","tax_order2","tax","2",114,"FOOTBALL","QUARTERBACK","the_item",3.397,48.81
"5657","tax_order2","tax","2",115,"TENT","NOSE","unr_item",3.949,20.63
"5657","tax_order2","tax","2",116,"SAD","HAPPY","tax_item",2.706,81.35
"5657","tax_order2","tax","2",117,"BERRY","BELL","unr_item",2.045,15.08
"5657","tax_order2","tax","2",118,"BANK","FISH","unr_item",2.336,14.81
"5659","tax_order2","tax","2",1,"POLICE","HANDCUFFS","the_item",18.829,0.53
"5659","tax_order2","tax","2",2,"AIRPORT","CITY","the_item",7.974,19.58
"5659","tax_order2","tax","2",3,"WRIST","HYDRANT","unr_item",4.798,0.79
"5659","tax_order2","tax","2",4,"CARD","TIGER","unr_item",3.942,1.46
"5659","tax_order2","tax","2",5,"SNOW","RAIN","tax_item",4.743,97.75
"5659","tax_order2","tax","2",6,"HONEY","BEE","the_item",3.772,99.74
"5659","tax_order2","tax","2",7,"CAR","BIKE","tax_item",3.847,96.16
"5659","tax_order2","tax","2",8,"WAITRESS","STEWARDESS","tax_item",9.292,49.74
"5659","tax_order2","tax","2",9,"BASKETBALL","SCREEN","unr_item",5.522,19.97
"5659","tax_order2","tax","2",10,"PANTS","DRESS","tax_item",5.173,22.75
"5659","tax_order2","tax","2",11,"LUNGS","CIGARETTES","the_item",3.734,60.05
"5659","tax_order2","tax","2",12,"BEE","SPIDER","tax_item",3.365,19.71
"5659","tax_order2","tax","2",13,"COACH","ASPHALT","unr_item",4.492,6.08
"5659","tax_order2","tax","2",14,"BABY","BOTTLE","the_item",4.694,50.93
"5659","tax_order2","tax","2",15,"STAIRS","BALLOON","unr_item",4.49,1.59
"5659","tax_order2","tax","2",16,"SKY","SLIDE","unr_item",3.766,4.23
"5659","tax_order2","tax","2",17,"TEMPLE","RABBI","the_item",4.246,65.61
"5659","tax_order2","tax","2",18,"CALCIUM","SWAN","unr_item",6.008,38.1
"5659","tax_order2","tax","2",19,"MONKEY","BEAR","tax_item",2.824,49.47
"5659","tax_order2","tax","2",20,"BISCUIT","COOKIE","tax_item",2.449,49.87
"5659","tax_order2","tax","2",21,"PATIO","FERRY","unr_item",7.377,9.52
"5659","tax_order2","tax","2",22,"TOAD","SCHOOL","unr_item",3.526,5.03
"5659","tax_order2","tax","2",23,"BUTCHER","SURGEON","tax_item",3.449,55.82
"5659","tax_order2","tax","2",24,"HAT","CROWN","tax_item",3.165,58.47
"5659","tax_order2","tax","2",25,"COW","FARM","the_item",7.187,80.16
"5659","tax_order2","tax","2",26,"BAMBOO","PANDA","the_item",2.571,80.16
"5659","tax_order2","tax","2",27,"SUBMARINE","OCEAN","the_item",2.957,81.35
"5659","tax_order2","tax","2",28,"TOOTHBRUSH","FLOSS","the_item",3.112,50
"5659","tax_order2","tax","2",29,"ROCKET","MISSILE","tax_item",2.723,83.33
"5659","tax_order2","tax","2",30,"LEMONADE","MILK","tax_item",2.653,48.68
"5659","tax_order2","tax","2",31,"THREAD","NEEDLE","the_item",5.359,69.31
"5659","tax_order2","tax","2",32,"BRICK","HEAD","unr_item",4.054,18.78
"5659","tax_order2","tax","2",33,"HOTEL","CHISEL","unr_item",4.865,9.39
"5659","tax_order2","tax","2",34,"BENCH","FREEZER","unr_item",2.925,15.74
"5659","tax_order2","tax","2",35,"STEREO","LION","unr_item",3.06,8.99
"5659","tax_order2","tax","2",36,"HAIR","PILOT","unr_item",3.43,1.46
"5659","tax_order2","tax","2",37,"CACTUS","CLIMATE","unr_item",5.217,50.79
"5659","tax_order2","tax","2",38,"PELICAN","SNAIL","unr_item",2.186,49.87
"5659","tax_order2","tax","2",39,"LAKE","DRUM","unr_item",3.294,18.39
"5659","tax_order2","tax","2",40,"SHAMPOO","SHOWER","the_item",3.196,70.63
"5659","tax_order2","tax","2",41,"UMBRELLA","BANANA","unr_item",3.69,13.49
"5659","tax_order2","tax","2",42,"ROOF","KEY","unr_item",4.353,40.21
"5659","tax_order2","tax","2",43,"LAWNMOWER","SCISSORS","tax_item",5.201,70.63
"5659","tax_order2","tax","2",44,"SAILOR","SHIP","the_item",2.417,67.33
"5659","tax_order2","tax","2",45,"COMPUTER","TABLET","tax_item",3.412,89.81
"5659","tax_order2","tax","2",46,"FOOT","CODE","unr_item",3.395,16.67
"5659","tax_order2","tax","2",47,"SHARK","SPOT","unr_item",4.115,10.05
"5659","tax_order2","tax","2",48,"POND","HOOD","unr_item",3.315,6.35
"5659","tax_order2","tax","2",49,"SHEEP","MINT","unr_item",2.912,7.8
"5659","tax_order2","tax","2",50,"BANK","FISH","unr_item",2.686,7.54
"5659","tax_order2","tax","2",51,"PILOT","CAPTAIN","tax_item",4.053,78.7
"5659","tax_order2","tax","2",52,"CROUTONS","SALAD","the_item",4.022,88.49
"5659","tax_order2","tax","2",53,"BELL","CLOCK","unr_item",3.332,82.41
"5659","tax_order2","tax","2",54,"MICROWAVE","OVEN","tax_item",3.691,80.42
"5659","tax_order2","tax","2",55,"HAMSTER","MIRROR","unr_item",3.955,55.42
"5659","tax_order2","tax","2",56,"BREAD","KEYBOARD","unr_item",2.57,11.77
"5659","tax_order2","tax","2",57,"CLOUD","NECKLACE","unr_item",2.861,9.13
"5659","tax_order2","tax","2",58,"CROW","DOCTOR","unr_item",2.861,4.76
"5659","tax_order2","tax","2",59,"BUDGET","GLASS","unr_item",2.256,11.9
"5659","tax_order2","tax","2",60,"WINDOW","GUITAR","unr_item",4.906,56.61
"5659","tax_order2","tax","2",61,"TEAM","CIRCLE","unr_item",2.508,76.72
"5659","tax_order2","tax","2",62,"BANK","ROBBERY","the_item",2.264,45.77
"5659","tax_order2","tax","2",63,"SPOON","CEREAL","the_item",2.19,70.63
"5659","tax_order2","tax","2",64,"NECK","WHALE","unr_item",3.175,32.14
"5659","tax_order2","tax","2",65,"TEA","CUP","the_item",2.136,69.05
"5659","tax_order2","tax","2",66,"CAKE","CUP","unr_item",2.908,10.45
"5659","tax_order2","tax","2",67,"CANDLE","CAKE","the_item",2.432,65.34
"5659","tax_order2","tax","2",68,"LAMP","PHONE","unr_item",3.144,75.26
"5659","tax_order2","tax","2",69,"SCULPTURE","CHISEL","the_item",2.257,68.92
"5659","tax_order2","tax","2",70,"PEN","PENCIL","tax_item",4.267,84.39
"5659","tax_order2","tax","2",71,"QUARTERBACK","FOOTBALL","the_item",2.705,97.22
"5659","tax_order2","tax","2",72,"TOILET","PEPPER","unr_item",3.231,15.21
"5659","tax_order2","tax","2",73,"COLD","SALESMAN","unr_item",3.801,30.03
"5659","tax_order2","tax","2",74,"BEER","JUICE","tax_item",3.048,53.17
"5659","tax_order2","tax","2",75,"SNOW","WOUND","unr_item",1.878,47.88
"5659","tax_order2","tax","2",76,"GARLIC","VAMPIRE","the_item",3.215,62.17
"5659","tax_order2","tax","2",77,"BILL","CHILD","unr_item",3.033,10.32
"5659","tax_order2","tax","2",78,"FENDER","LAW","unr_item",3.069,51.72
"5659","tax_order2","tax","2",79,"BRACKET","RAIN","unr_item",3.646,17.86
"5659","tax_order2","tax","2",80,"SHRIMP","BISCUIT","unr_item",3.029,52.38
"5659","tax_order2","tax","2",81,"STRING","HAND","unr_item",3.146,26.98
"5659","tax_order2","tax","2",82,"NOSE","TENT","unr_item",3.62,14.02
"5659","tax_order2","tax","2",83,"FIELD","GRASS","the_item",3.23,71.56
"5659","tax_order2","tax","2",84,"WAVE","PAGE","unr_item",2.299,71.83
"5659","tax_order2","tax","2",85,"ROD","SOCIETY","unr_item",4.042,29.89
"5659","tax_order2","tax","2",86,"BAT","BIRD","tax_item",4.832,69.05
"5659","tax_order2","tax","2",87,"GRAVY","BISCUITS","the_item",2.756,70.63
"5659","tax_order2","tax","2",88,"CEREAL","BUSINESS","unr_item",2.434,70.11
"5659","tax_order2","tax","2",89,"BABY","CRIB","the_item",1.895,49.74
"5659","tax_order2","tax","2",90,"CAMEL","ANTELOPE","tax_item",2.59,58.33
"5659","tax_order2","tax","2",91,"GLOVE","SHOE","tax_item",2.316,52.12
"5659","tax_order2","tax","2",92,"GOLD","SILVER","tax_item",2.285,66.67
"5659","tax_order2","tax","2",93,"GRASS","COW","the_item",3.399,94.97
"5659","tax_order2","tax","2",94,"PAMPHLET","CORK","unr_item",2.387,10.19
"5659","tax_order2","tax","2",95,"BUG","CHEESE","unr_item",3.227,37.04
"5659","tax_order2","tax","2",96,"PLUG","HAMMER","unr_item",2.447,19.44
"5659","tax_order2","tax","2",97,"HELMET","BICYCLE","the_item",3.625,78.31
"5659","tax_order2","tax","2",98,"LEGS","CHAIR","the_item",2.098,69.05
"5659","tax_order2","tax","2",99,"PACKAGE","CRATE","tax_item",2.351,73.41
"5659","tax_order2","tax","2",100,"COUCH","ATHLETE","unr_item",3.315,3.7
"5659","tax_order2","tax","2",101,"BEACH","COCONUT","the_item",3.3,80.95
"5659","tax_order2","tax","2",102,"SHORE","TUB","unr_item",2.596,80.16
"5659","tax_order2","tax","2",103,"SAD","HAPPY","tax_item",3.759,49.34
"5659","tax_order2","tax","2",104,"HOUSE","MOVIE","unr_item",2.726,35.45
"5659","tax_order2","tax","2",105,"CAT","DOG","tax_item",3.743,48.15
"5659","tax_order2","tax","2",106,"AUNT","BOMB","unr_item",5.769,1.32
"5659","tax_order2","tax","2",107,"HOSTESS","RECEPTIONIST","tax_item",3.079,41.01
"5659","tax_order2","tax","2",108,"BUS","TRUCK","tax_item",1.412,50.13
"5659","tax_order2","tax","2",109,"TORTILLA","BEANS","the_item",2.805,72.88
"5659","tax_order2","tax","2",110,"CARAVAN","LAUNDRY","unr_item",3.551,63.49
"5659","tax_order2","tax","2",111,"JAZZ","SAXOPHONE","the_item",1.777,51.06
"5659","tax_order2","tax","2",112,"SOCK","OUTLET","unr_item",3.107,23.94
"5659","tax_order2","tax","2",113,"APPLE","DRIVEWAY","unr_item",2.912,4.63
"5659","tax_order2","tax","2",114,"FLY","ANT","tax_item",1.944,55.69
"5659","tax_order2","tax","2",115,"ICE","TEETH","unr_item",1.328,48.54
"5659","tax_order2","tax","2",116,"LAKE","RIVER","tax_item",2.335,97.75
"5659","tax_order2","tax","2",117,"GOOSE","PENGUIN","tax_item",3.459,49.07
"5659","tax_order2","tax","2",118,"CEMETARY","NOVEL","unr_item",3.602,18.39
"5663","tax_order2","tax","2",1,"CLUB","CACTUS","unr_item",8.177,0
"5663","tax_order2","tax","2",2,"MICROWAVE","OVEN","tax_item",4.718,81.08
"5663","tax_order2","tax","2",3,"BAMBOO","PANDA","the_item",6.733,79.76
"5663","tax_order2","tax","2",4,"TREE","LION","unr_item",3.7,29.37
"5663","tax_order2","tax","2",5,"TENT","SHOVEL","unr_item",2.724,19.58
"5663","tax_order2","tax","2",6,"SHEEP","MINT","unr_item",2.893,0
"5663","tax_order2","tax","2",7,"STRING","PARK","unr_item",5.142,40.48
"5663","tax_order2","tax","2",8,"UMBRELLA","BANANA","unr_item",2.147,0
"5663","tax_order2","tax","2",9,"CUP","TEA","the_item",3.315,100
"5663","tax_order2","tax","2",10,"BANK","ROBBERY","the_item",2.526,100
"5663","tax_order2","tax","2",11,"TOOTHBRUSH","FLOSS","the_item",2.168,100
"5663","tax_order2","tax","2",12,"BIKE","CAR","tax_item",2.352,100
"5663","tax_order2","tax","2",13,"SUBMARINE","OCEAN","the_item",3.661,100
"5663","tax_order2","tax","2",14,"BUTCHER","SURGEON","tax_item",2.929,100
"5663","tax_order2","tax","2",15,"ENGINE","PAMPHLET","unr_item",3.096,0
"5663","tax_order2","tax","2",16,"CHISEL","SCULPTURE","the_item",3.15,80.56
"5663","tax_order2","tax","2",17,"JAZZ","SAXOPHONE","the_item",3.581,97.88
"5663","tax_order2","tax","2",18,"CODE","FOOT","unr_item",2.296,0
"5663","tax_order2","tax","2",19,"BILL","CHILD","unr_item",4.628,0
"5663","tax_order2","tax","2",20,"STEWARDESS","WAITRESS","tax_item",3.87,50.4
"5663","tax_order2","tax","2",21,"SHIP","SAILOR","the_item",2.603,69.58
"5663","tax_order2","tax","2",22,"TEMPLE","RABBI","the_item",3.236,80.29
"5663","tax_order2","tax","2",23,"SHORE","STEW","unr_item",3.065,3.17
"5663","tax_order2","tax","2",24,"SHOP","SNOW","unr_item",3.649,0
"5663","tax_order2","tax","2",25,"AUNT","INTERNET","unr_item",3.026,0
"5663","tax_order2","tax","2",26,"ROCKET","MISSILE","tax_item",2.763,99.6
"5663","tax_order2","tax","2",27,"LAKE","DRUM","unr_item",3.368,0
"5663","tax_order2","tax","2",28,"GRAVY","BISCUITS","the_item",2.253,60.05
"5663","tax_order2","tax","2",29,"SHED","PEPPER","unr_item",2.264,0
"5663","tax_order2","tax","2",30,"PILOT","CAPTAIN","tax_item",4.991,100
"5663","tax_order2","tax","2",31,"CROUTONS","SALAD","the_item",2.029,98.94
"5663","tax_order2","tax","2",32,"BASKETBALL","SCREEN","unr_item",4.429,70.37
"5663","tax_order2","tax","2",33,"SPOON","CEREAL","the_item",2.709,89.42
"5663","tax_order2","tax","2",34,"PLIERS","ASPHALT","unr_item",3.573,0
"5663","tax_order2","tax","2",35,"LEMONADE","MILK","tax_item",2.402,1.06
"5663","tax_order2","tax","2",36,"GLASSES","CAKE","unr_item",2.779,0.53
"5663","tax_order2","tax","2",37,"PELICAN","DANCE","unr_item",1.781,0.79
"5663","tax_order2","tax","2",38,"CRAB","CARAVAN","unr_item",2.636,0.79
"5663","tax_order2","tax","2",39,"CRATE","PACKAGE","tax_item",3.402,49.87
"5663","tax_order2","tax","2",40,"OUTLET","SOCK","unr_item",5.594,0
"5663","tax_order2","tax","2",41,"PARCEL","HOTEL","unr_item",8.144,0
"5663","tax_order2","tax","2",42,"SHOWER","SHAMPOO","the_item",7.186,98.02
"5663","tax_order2","tax","2",43,"BENCH","FREEZER","unr_item",3.099,19.97
"5663","tax_order2","tax","2",44,"SPIDER","BEE","tax_item",2.474,49.34
"5663","tax_order2","tax","2",45,"ANTELOPE","CAMEL","tax_item",19.654,40.08
"5663","tax_order2","tax","2",46,"COUCH","ATHLETE","unr_item",2.759,0
"5663","tax_order2","tax","2",47,"TIGER","CARD","unr_item",3.833,0
"5663","tax_order2","tax","2",48,"PENCIL","PEN","tax_item",1.864,96.16
"5663","tax_order2","tax","2",49,"SILVER","GOLD","tax_item",1.632,100
"5663","tax_order2","tax","2",50,"CANDLE","CAKE","the_item",1.996,0
"5663","tax_order2","tax","2",51,"BISCUIT","SHRIMP","unr_item",2.118,0
"5663","tax_order2","tax","2",52,"FIELD","GRASS","the_item",2.81,94.71
"5663","tax_order2","tax","2",53,"CIGARETTES","LUNGS","the_item",1.753,85.85
"5663","tax_order2","tax","2",54,"BREAD","KEYBOARD","unr_item",3.27,0
"5663","tax_order2","tax","2",55,"BEE","HONEY","the_item",3.472,92.46
"5663","tax_order2","tax","2",56,"NOVEL","WORK","unr_item",2.292,5.69
"5663","tax_order2","tax","2",57,"FISH","BEER","unr_item",4.196,63.1
"5663","tax_order2","tax","2",58,"WHIP","FENDER","unr_item",3.571,0
"5663","tax_order2","tax","2",59,"NEEDLE","THREAD","the_item",1.899,99.07
"5663","tax_order2","tax","2",60,"PANTS","DRESS","tax_item",3.044,100
"5663","tax_order2","tax","2",61,"CEREAL","CONCRETE","unr_item",2.089,0
"5663","tax_order2","tax","2",62,"HAMSTER","BOTTLE","unr_item",3.852,0
"5663","tax_order2","tax","2",63,"LEAF","WINDOW","unr_item",1.78,0
"5663","tax_order2","tax","2",64,"SHOE","GLOVE","tax_item",2.475,100
"5663","tax_order2","tax","2",65,"FUR","PAGE","unr_item",1.897,0
"5663","tax_order2","tax","2",66,"BEER","JUICE","tax_item",2.824,70.11
"5663","tax_order2","tax","2",67,"SLIDE","SKY","unr_item",2.302,9.52
"5663","tax_order2","tax","2",68,"HOOD","POND","unr_item",2.759,1.85
"5663","tax_order2","tax","2",69,"SWAN","CALCIUM","unr_item",2.895,1.72
"5663","tax_order2","tax","2",70,"VOLCANO","HEAD","unr_item",5.743,0
"5663","tax_order2","tax","2",71,"GLASS","FEATHER","unr_item",1.422,10.71
"5663","tax_order2","tax","2",72,"FOOTBALL","QUARTERBACK","the_item",1.779,88.23
"5663","tax_order2","tax","2",73,"BEAR","MONKEY","tax_item",2.725,40.74
"5663","tax_order2","tax","2",74,"SEED","KEY","unr_item",1.697,3.97
"5663","tax_order2","tax","2",75,"HOSTESS","RECEPTIONIST","tax_item",1.328,0.93
"5663","tax_order2","tax","2",76,"BABY","CRIB","the_item",1.786,77.65
"5663","tax_order2","tax","2",77,"HYDRANT","WRIST","unr_item",2.242,1.06
"5663","tax_order2","tax","2",78,"GOOSE","PENGUIN","tax_item",1.584,99.07
"5663","tax_order2","tax","2",79,"ICE","DOG","unr_item",2.637,0.66
"5663","tax_order2","tax","2",80,"HAMMER","AIRPLANE","unr_item",3.148,7.8
"5663","tax_order2","tax","2",81,"PILOT","HAIR","unr_item",1.827,0
"5663","tax_order2","tax","2",82,"BALLOON","LIBRARY","unr_item",1.615,3.57
"5663","tax_order2","tax","2",83,"COW","GRASS","the_item",1.878,90.74
"5663","tax_order2","tax","2",84,"SAUCE","CIRCLE","unr_item",3.017,0
"5663","tax_order2","tax","2",85,"BEANS","TORTILLA","the_item",4.735,51.19
"5663","tax_order2","tax","2",86,"LAWNMOWER","SCISSORS","tax_item",4.557,65.21
"5663","tax_order2","tax","2",87,"DRIVEWAY","GLOVES","unr_item",2.336,0
"5663","tax_order2","tax","2",88,"POLICE","HANDCUFFS","the_item",2.41,100
"5663","tax_order2","tax","2",89,"SALESMAN","COLD","unr_item",1.709,0
